{
  "resourceType": "Bundle",
  "id": "example-bundle",
  "type": "transaction",
  "entry": [
    {
      "fullUrl": "urn:uuid:0c8265f1-532a-4a5a-943f-e40eb5a7b557",
      "resource": {
        "resourceType": "DiagnosticReport",
        "id": "example-laborbefund",
        "meta": {
          "profile": [
            "https://www.medizininformatik-initiative.de/fhir/core/modul-labor/StructureDefinition/DiagnosticReportLab"
          ],
          "source": "LaboratorySystem"
        },
        "identifier": [
          {
            "use": "official",
            "system": "http://example-laboratory-system.com/identifiers/reports",
            "value": "FILL-12345",
            "type": {
              "coding": [
                {
                  "system": "http://terminology.hl7.org/CodeSystem/v2-0203",
                  "code": "FILL",
                  "display": "Filler Identifier"
                }
              ],
              "text": "Filler Identifier"
            },
            "assigner": {
              "reference": "Organization/example-lab",
              "display": "Example Lab Organization"
            }
          }
        ],
        "basedOn": [
          {
            "reference": "ServiceRequest/servicerequest-lab-id-1234",
            "display": "Blood Glucose Test"
          }
        ],
        "status": "final",
        "category": [
          {
            "coding": [
              {
                "system": "http://loinc.org",
                "code": "26436-6",
                "display": "Laboratory studies (set)"
              },
              {
                "system": "http://terminology.hl7.org/CodeSystem/v2-0074",
                "code": "LAB",
                "display": "Laboratory"
              }
            ],
            "text": "Laboratory"
          }
        ],
        "code": {
          "coding": [
            {
              "system": "http://loinc.org",
              "code": "11502-2",
              "display": "Laboratory report"
            }
          ],
          "text": "Complete Blood Count"
        },
        "subject": {
          "reference": "Patient/1"
        },
        "encounter": {
          "reference": "Encounter/encounter-12345"
        },
        "effectiveDateTime": "2024-08-22T08:30:00Z",
        "issued": "2022-02-03T04:05:06Z",
        "performer": [
          {
            "reference": "Organization/example-lab",
            "display": "Example Lab Organization"
          }
        ],
        "specimen": [
          {
            "reference": "Specimen/example-blood",
            "display": "Blood sample"
          }
        ],
        "result": [
          {
            "reference": "Observation/mii-pr-labor-laboruntersuchung",
            "display": "Hemoglobin level"
          }
        ],
        "conclusion": "Normal blood count"
      },
      "request": {
        "method": "POST",
        "url": "DiagnosticReport"
      }
    },
    {
      "fullUrl": "Encounter/encounter-12345",
      "resource": {
        "resourceType": "Encounter",
        "id": "encounter-12345",
        "class": {
          "code": "AMB",
          "display": "ambulatory",
          "system": "http://terminology.hl7.org/CodeSystem/v3-ActCode"
        },
        "identifier": [
          {
            "use": "official",
            "type": {
              "coding": [
                {
                  "system": "http://terminology.hl7.org/CodeSystem/v2-0203",
                  "code": "VN",
                  "display": "Visit number"
                }
              ],
              "text": "Visit number"
            },
            "system": "http://hospital.smarthealthit.org",
            "value": "encounter-id-1245"
          }
        ],
        "status": "finished",
        "subject": {
          "reference": "Patient/1"
        },
        "period": {
          "start": "2024-08-21T09:00:00+01:00",
          "end": "2024-08-21T09:30:00+01:00"
        }
      },
      "request": {
        "method": "POST",
        "url": "Encounter"
      }
    },
    {
      "fullUrl": "Observation/mii-pr-labor-laboruntersuchung",
      "resource": {
        "resourceType": "Observation",
        "id": "mii-pr-labor-laboruntersuchung",
        "meta": {
          "profile": [
            "https://www.medizininformatik-initiative.de/fhir/core/modul-labor/StructureDefinition/ObservationLab"
          ]
        },
        "identifier": [
          {
            "assigner": {
              "reference": "Organization/Charité",
              "display": "example org"
            },
            "system": "https://www.charite.de/fhir/CodeSystem/lab-identifiers",
            "type": {
              "coding": [
                {
                  "code": "OBI",
                  "system": "http://terminology.hl7.org/CodeSystem/v2-0203"
                }
              ]
            },
            "value": "24336-0_laborauftragBldA"
          }
        ],
        "status": "final",
        "category": [
          {
            "coding": [
              {
                "system": "http://terminology.hl7.org/CodeSystem/observation-category",
                "code": "laboratory",
                "display": "Laboratory"
              },
              {
                "system": "http://loinc.org",
                "code": "26436-6",
                "display": "Laboratory studies (set)"
              }
            ],
            "text": "Laboratory"
          }
        ],
        "basedOn": [
          {
            "reference": "ServiceRequest/servicerequest-lab-id-1234",
            "display": "Blood Glucose Test"
          }
        ],
        "code": {
          "coding": [
            {
              "system": "http://loinc.org",
              "code": "718-7",
              "display": "Hemoglobin [Mass/volume] in Blood"
            }
          ],
          "text": "Hemoglobin [Mass/volume] in Blood"
        },
        "subject": {
          "reference": "Patient/1"
        },
        "effectiveDateTime": "2024-08-22T12:00:00+00:00",
        "issued": "2022-02-03T04:05:06Z",
        "valueQuantity": {
          "value": 7.4,
          "unit": "g/dL",
          "system": "http://unitsofmeasure.org",
          "code": "g/dL"
        },
        "specimen": {
          "reference": "Specimen/example-blood",
          "display": "Blood sample"
        },
        "encounter": {
          "reference": "Encounter/encounter-12345"
        },
        "interpretation": [
          {
            "coding": [
              {
                "system": "http://terminology.hl7.org/CodeSystem/v3-ObservationInterpretation",
                "code": "H",
                "display": "High"
              }
            ],
            "text": "Interpretation description"
          }
        ],
        "method": {
          "coding": [
            {
              "system": "http://snomed.info/sct",
              "code": "424876005",
              "display": "Surgical approach"
            }
          ],
          "text": "Blood test using standard laboratory methods"
        },
        "performer": [
          {
            "reference": "Organization/example-lab"
          }
        ],
        "note": [
          {
            "text": "The observation result is within normal range, but further review may be needed."
          }
        ]
      },
      "request": {
        "method": "POST",
        "url": "Observation"
      }
    },
    {
      "fullUrl": "Specimen/example-blood",
      "request": {
        "method": "POST",
        "url": "Specimen"
      },
      "resource": {
        "resourceType": "Specimen",
        "id": "example-blood",
        "meta": {
          "profile": [
            "http://hl7.org/fhir/StructureDefinition/Specimen"
          ]
        },
        "status": "available",
        "type": {
          "coding": [
            {
              "system": "http://snomed.info/sct",
              "code": "122555007",
              "display": "Venous blood specimen"
            }
          ],
          "text": "Venous blood specimen"
        },
        "subject": {
          "reference": "Patient/1"
        },
        "identifier": [
          {
            "system": "http://hospital.org/specimens",
            "value": "SP-987654"
          }
        ],
        "receivedTime": "2022-02-03T04:05:06Z",
        "collection": {
          "collectedDateTime": "2024-08-24T09:00:00Z",
          "collector": {
            "type": "Practitioner",
            "identifier": {
              "system": "http://hospital.org/practitioners",
              "value": "1234567"
            },
            "display": "Dr. John Doe"
          },
          "method": {
            "coding": [
              {
                "system": "http://snomed.info/sct",
                "code": "129316008",
                "display": "Aspiration - action"
              }
            ],
            "text": "Aspiration"
          },
          "duration": {
            "value": 5,
            "unit": "minutes",
            "system": "http://unitsofmeasure.org",
            "code": "min"
          },
          "quantity": {
            "value": 10,
            "unit": "mL",
            "system": "http://unitsofmeasure.org",
            "code": "mL"
          },
          "bodySite": {
            "coding": [
              {
                "system": "http://snomed.info/sct",
                "code": "49852007",
                "display": "Structure of median cubital vein (body structure)"
              }
            ],
            "text": "Right arm"
          }
        },
        "note": [
          {
            "text": "Sample collected in the morning."
          }
        ]
      }
    }
  ]
}