{
  "resourceType": "Bundle",
  "id": "example-bundle",
  "type": "transaction",
  "entry": [
    {
      "fullUrl": "Encounter/example",
      "resource": {
        "resourceType": "Encounter",
        "id": "example",
        "meta": {
          "profile": [
            "https://www.medizininformatik-initiative.de/fhir/core/modul-fall/StructureDefinition/KontaktGesundheitseinrichtung"
          ]
        },
        "extension": [
          {
            "url": "http://fhir.de/StructureDefinition/Aufnahmegrund",
            "extension": [
              {
                "url": "ErsteUndZweiteStelle",
                "valueCoding": {
                  "system": "http://fhir.de/CodeSystem/dkgev/AufnahmegrundErsteUndZweiteStelle",
                  "code": "01",
                  "display": "Krankenhausbehandlung, vollstationär"
                }
              },
              {
                "url": "DritteStelle",
                "valueCoding": {
                  "system": "http://fhir.de/CodeSystem/dkgev/AufnahmegrundDritteStelle",
                  "code": "0",
                  "display": "Anderes"
                }
              },
              {
                "url": "VierteStelle",
                "valueCoding": {
                  "system": "http://fhir.de/CodeSystem/dkgev/AufnahmegrundVierteStelle",
                  "code": "1",
                  "display": "Normalfall"
                }
              }
            ]
          },
          {
            "url": "http://hl7.org/fhir/5.0/StructureDefinition/extension-Encounter.plannedStartDate",
            "valueDateTime": "2024-08-21T09:00:00+01:00"
          },
          {
            "url": "http://hl7.org/fhir/5.0/StructureDefinition/extension-Encounter.plannedEndDate",
            "valueDateTime": "2024-08-21T09:30:00+01:00"
          }
        ],
        "identifier": [
          {
            "use": "usual",
            "type": {
              "coding": [
                {
                  "system": "http://terminology.hl7.org/CodeSystem/v2-0203",
                  "code": "MR",
                  "display": "Medical record number"
                }
              ]
            },
            "system": "http://hospital.smarthealthit.org",
            "value": "encounter-id-12345",
            "assigner": {
              "reference": "Organization/example-lab",
              "display": "Organization"
            }
          }
        ],
        "status": "finished",
        "class": {
          "system": "http://terminology.hl7.org/CodeSystem/v3-ActCode",
          "code": "AMB",
          "display": "ambulatory"
        },
        "type": [
          {
            "coding": [
              {
                "system": "http://fhir.de/CodeSystem/Kontaktebene",
                "code": "einrichtungskontakt",
                "display": "Einrichtungskontakt"
              }
            ]
          },
          {
            "coding": [
              {
                "system": "http://fhir.de/CodeSystem/kontaktart-de",
                "code": "begleitperson",
                "display": "Begleitperson"
              }
            ]
          }
        ],
        "subject": {
          "reference": "Patient/1"
        },
        "period": {
          "start": "2022-02-03T04:05:06Z",
          "end": "2022-04-03T04:05:06Z"
        },
        "diagnosis": [
          {
            "condition": {
              "type": "Condition",
              "identifier": {
                "type": {
                  "coding": [
                    {
                      "system": "http://terminology.hl7.org/CodeSystem/v2-0203",
                      "code": "MR",
                      "display": "Medical record number"
                    }
                  ],
                  "text": "Medical record number"
                },
                "system": "http://hospital.smarthealthit.org/conditions",
                "value": "CON123456",
                "period": {
                  "start": "1993-09-08",
                  "end": "1993-12-13"
                }
              },
              "display": "Related Condition"
            },
            "use": {
              "coding": [
                {
                  "system": "http://fhir.de/CodeSystem/KontaktDiagnoseProzedur",
                  "code": "referral-diagnosis",
                  "display": "Überweisungsdiagnose"
                },
                {
                  "system": "http://fhir.de/CodeSystem/KontaktDiagnoseProzedur",
                  "code": "surgery-diagnosis",
                  "display": "Operationsdiagnose"
                }
              ]
            },
            "rank": 1
          }
        ],
        "hospitalization": {
          "admitSource": {
            "coding": [
              {
                "system": "http://fhir.de/CodeSystem/dgkev/Aufnahmeanlass",
                "code": "E",
                "display": "Einweisung durch einen Arzt"
              }
            ],
            "text": "Referral by a doctor"
          },
          "dischargeDisposition": {
            "url": "http://fhir.de/StructureDefinition/Entlassungsgrund",
            "extension": [
              {
                "valueCoding": {
                  "system": "http://fhir.de/CodeSystem/dkgev/EntlassungsgrundDritteStelle",
                  "code": "1",
                  "display": "arbeitsfähig entlassen"
                }
              },
              {
                "valueCoding": {
                  "system": "http://fhir.de/CodeSystem/dkgev/EntlassungsgrundErsteUndZweiteStelle",
                  "code": "01",
                  "display": "Behandlung regulär beendet"
                }
              }
            ],
            "coding": [
              {
                "system": "http://terminology.hl7.org/CodeSystem/discharge-disposition",
                "code": "home",
                "display": "Home"
              }
            ],
            "text": "The patient was dicharged and has indicated that they are going to return home afterwards."
          }
        },
        "location": [
          {
            "id": "zimmer-1",
            "location": {
              "reference": "Location/example",
              "display": "Main Hospital Room 101",
              "identifier": {
                "system": "http://hospital.org/locations",
                "value": "zimmer-1"
              }
            },
            "status": "active",
            "physicalType": {
              "coding": [
                {
                  "system": "http://terminology.hl7.org/CodeSystem/location-physical-type",
                  "code": "ro",
                  "display": "Room"
                }
              ]
            },
            "period": {
              "start": "2024-08-21T09:00:00+01:00",
              "end": "2024-08-21T17:00:00+01:00"
            }
          },
          {
            "id": "bett-1",
            "location": {
              "reference": "Location/example",
              "display": "Main Hospital Room 101",
              "identifier": {
                "system": "http://hospital.org/locations",
                "value": "bett-1"
              }
            },
            "status": "active",
            "physicalType": {
              "coding": [
                {
                  "system": "http://terminology.hl7.org/CodeSystem/location-physical-type",
                  "code": "bd",
                  "display": "Bed"
                }
              ]
            },
            "period": {
              "start": "2024-08-21T09:00:00+01:00",
              "end": "2024-08-21T17:00:00+01:00"
            }
          },
          {
            "id": "station-1",
            "location": {
              "reference": "Location/example",
              "display": "Main Hospital Room 101",
              "identifier": {
                "system": "http://hospital.org/locations",
                "value": "station-1"
              }
            },
            "status": "active",
            "physicalType": {
              "coding": [
                {
                  "system": "http://terminology.hl7.org/CodeSystem/location-physical-type",
                  "code": "wa",
                  "display": "Ward"
                }
              ]
            },
            "period": {
              "start": "2024-08-21T09:00:00+01:00",
              "end": "2024-08-21T17:00:00+01:00"
            }
          }
        ],
        "serviceProvider": {
          "reference": "Organization/example-lab",
          "display": "Organization"
        },
        "serviceType": {
          "coding": [
            {
              "system": "http://fhir.de/CodeSystem/dkgev/Fachabteilungsschluessel-erweitert",
              "code": "0100",
              "display": "Innere Medizin"
            },
            {
              "system": "http://fhir.de/CodeSystem/dkgev/Fachabteilungsschluessel",
              "code": "0200",
              "display": "Geriatrie"
            }
          ],
          "text": "General medicine consultation"
        }
      },
      "request": {
        "method": "POST",
        "url": "Encounter"
      }
    },
    {
      "fullUrl": "Organization/example-lab",
      "request": {
        "method": "POST",
        "url": "Organization"
      },
      "resource": {
        "resourceType": "Organization",
        "id": "example-lab",
        "identifier": [
          {
            "system": "http://hospital.org/organizations",
            "value": "ORG-001"
          }
        ],
        "name": "Example Hospital"
      }
    },
    {
      "fullUrl": "Location/example",
      "resource": {
        "resourceType": "Location",
        "id": "example",
        "identifier": [
          {
            "system": "http://hospital.org/locations",
            "value": "location-101"
          }
        ],
        "name": "Main Hospital Room 101",
        "status": "active",
        "physicalType": {
          "coding": [
            {
              "system": "http://terminology.hl7.org/CodeSystem/location-physical-type",
              "code": "ro",
              "display": "Room"
            }
          ]
        }
      },
      "request": {
        "method": "POST",
        "url": "Location"
      }
    }
  ]
}