{
  "resourceType": "Bundle",
  "id": "example-bundle",
  "type": "transaction",
  "entry": [
    {
      "fullUrl": "urn:uuid:302c42bf-e35b-4084-995f-4fb8857c1a16",
      "resource": {
        "resourceType": "ResearchSubject",
        "id": "example-research-subject",
        "meta": {
          "profile": [
            "https://www.medizininformatik-initiative.de/fhir/core/modul-person/StructureDefinition/ResearchSubject"
          ]
        },
        "identifier": [
          {
            "type": {
              "coding": [
                {
                  "system": "http://terminology.hl7.org/CodeSystem/v2-0203",
                  "code": "ANON",
                  "display": "Anonymous identifier"
                }
              ],
              "text": "Anonymous identifier"
            },
            "use": "official",
            "system": "http://localhost:8888/fhir-bridge/fhir/identifier/patient",
            "value": "KHID123"
          }
        ],
        "status": "eligible",
        "period": {
          "start": "2023-07-22T08:30:00Z",
          "end": "2024-08-22T08:30:00Z"
        },
        "study": {
          "reference": "ResearchStudy/example-study"
        },
        "individual": {
          "reference": "Patient/{{patientId_fhir-server}}",
          "identifier": {
            "system": "urn:ietf:rfc:4122",
            "value": "{{patientId_fhir-server}}"
          }
        },
        "consent": {
          "reference": "Consent/6dabfb58-d2b9-4f68-844c-368294474f94"
        }
      },
      "request": {
        "method": "POST",
        "url": "ResearchSubject"
      }
    },
    {
      "fullUrl": "urn:uuid:6dabfb58-d2b9-4f68-844c-368294474f94",
      "resource": {
        "resourceType": "Consent",
        "id": "example-consent-id",
        "meta": {
          "profile": [
            "https://www.medizininformatik-initiative.de/fhir/modul-consent/StructureDefinition/mii-pr-consent-einwilligung"
          ],
          "source": "LaboratorySystem"
        },
        "status": "active",
        "extension": [
          {
            "url": "http://fhir.de/ConsentManagement/StructureDefinition/DomainReference",
            "id": "domin-reference-id",
            "extension": [
              {
                "url": "domain",
                "valueReference": {
                  "reference": "ConsentManagementDomainOrganization/example-organization",
                  "type": "Organization",
                  "identifier": {
                    "system": "http://example.org/consent-domain",
                    "value": "12345"
                  },
                  "display": "Example Consent Domain Organization"
                }
              }
            ]
          }
        ],
        "scope": {
          "coding": [
            {
              "system": "http://terminology.hl7.org/CodeSystem/consentscope",
              "code": "research",
              "display": "Research"
            }
          ],
          "text": "Research"
        },
        "category": [
          {
            "coding": [
              {
                "system": "http://loinc.org",
                "code": "57016-8",
                "display": "Privacy policy acknowledgement Document"
              }
            ],
            "text": "Privacy policy acknowledgement Document"
          },
          {
            "coding": [
              {
                "system": "https://www.medizininformatik-initiative.de/fhir/modul-consent/CodeSystem/mii-cs-consent-consent_category",
                "code": "2.16.840.1.113883.3.1937.777.24.2.184",
                "display": "Consent for specific research"
              }
            ],
            "text": "Consent for specific research"
          }
        ],
        "patient": {
          "reference": "Patient/{{patientId_fhir-server}}",
          "identifier": {
            "system": "urn:ietf:rfc:4122",
            "value": "{{patientId_fhir-server}}"
          }
        },
        "dateTime": "2024-08-22T08:30:00Z",
        "organization": [
          {
            "reference": "Organization/example-lab",
            "display": "Consent Organization"
          }
        ],
        "sourceReference": {
          "reference": "QuestionnaireResponse/45082697"
        },
        "policy": [
          {
            "uri": "http://localhost:8888/fhir-bridge/fhir/consent-policy"
          }
        ],
        "policyRule": {
          "coding": [
            {
              "system": "http://terminology.hl7.org/CodeSystem/consentpolicycodes",
              "code": "cric",
              "display": "Common Rule Informed Consent"
            }
          ],
          "text": "Common Rule Informed Consent"
        },
        "provision": {
          "type": "deny",
          "period": {
            "start": "2023-07-22T08:30:00Z",
            "end": "2024-08-22T08:30:00Z"
          },
          "provision": [
            {
              "type": "permit",
              "period": {
                "start": "2024-08-22T08:30:00Z",
                "end": "2025-08-22T08:30:00Z"
              },
              "code": [
                {
                  "coding": [
                    {
                      "system": "urn:oid:2.16.840.1.113883.3.1937.777.24.5.3",
                      "code": "2.16.840.1.113883.3.1937.777.24.5.3.1",
                      "display": "Patientendaten erheben, speichern, nutzen"
                    }
                  ],
                  "text": "Patientendaten erheben, speichern, nutzen"
                }
              ]
            }
          ]
        }
      },
      "request": {
        "method": "POST",
        "url": "Consent"
      }
    },
    {
      "fullUrl": "urn:uuid:8ab73d0a-ae92-40a7-9c0b-73c6e5294aee",
      "resource": {
        "resourceType": "Encounter",
        "id": "encounter-12345",
        "class": {
          "code": "AMB",
          "display": "ambulatory",
          "system": "http://terminology.hl7.org/CodeSystem/v3-ActCode"
        },
        "identifier": [
          {
            "use": "official",
            "type": {
              "coding": [
                {
                  "system": "http://terminology.hl7.org/CodeSystem/v2-0203",
                  "code": "VN",
                  "display": "Visit Number"
                }
              ],
              "text": "Visit Number"
            },
            "system": "http://hospital.smarthealthit.org",
            "value": "encounter-id-1245"
          }
        ],
        "status": "finished",
        "subject": {
          "reference": "Patient/{{patientId_fhir-server}}",
          "identifier": {
            "system": "urn:ietf:rfc:4122",
            "value": "{{patientId_fhir-server}}"
          }
        },
        "period": {
          "start": "2024-08-21T09:00:00+01:00",
          "end": "2024-08-21T09:30:00+01:00"
        }
      },
      "request": {
        "method": "POST",
        "url": "Encounter"
      }
    },
    {
      "fullUrl": "urn:uuid:aae023b3-ff98-4b97-9287-baa01084ba1e",
      "request": {
        "method": "POST",
        "url": "Organization"
      },
      "resource": {
        "resourceType": "Organization",
        "id": "example-lab",
        "identifier": [
          {
            "system": "http://hospital.org/organizations",
            "value": "ORG-001"
          }
        ],
        "name": "Example Hospital"
      }
    }
  ]
}