{
  "entry": [
    {
      "fullUrl": "urn:uuid:04121321-4af5-424c-a0e1-ed3aab1c349d",
      "request": {
        "method": "POST",
        "url": "DiagnosticReport"
      },
      "resource": {
        "resourceType": "DiagnosticReport",
        "id": "ExampleLaborbefund",
        "meta": {
          "profile": [
            "https://www.medizininformatik-initiative.de/fhir/core/modul-labor/StructureDefinition/DiagnosticReportLab"
          ]
        },
        "identifier": [
          {
            "type": {
              "coding": [
                {
                  "system": "http://terminology.hl7.org/CodeSystem/v2-0203",
                  "code": "FILL"
                }
              ]
            },
            "system": "https://example.org/fhir/sid/test-befund",
            "value": "0987654321",
            "assigner": {
              "identifier": {
                "system": "https://www.medizininformatik-initiative.de/fhir/core/CodeSystem/core-location-identifier",
                "value": "DIZ-ID"
              }
            }
          }
        ],
        "basedOn": [
          {
            "reference": "http://external.fhir.server/ServiceRequest/111"
          }
        ],
        "status": "final",
        "category": [
          {
            "coding": [
              {
                "system": "http://terminology.hl7.org/CodeSystem/v2-0074",
                "code": "LAB",
                "display": "lab"
              },
              {
                "system": "http://loinc.org",
                "code": "26436-6",
                "display": "Laboratory studies (set)"
              }
            ]
          }
        ],
        "code": {
          "coding": [
            {
              "system": "http://loinc.org",
              "code": "11502-2",
              "display": "Laboratory report"
            }
          ]
        },
        "subject": {
          "identifier": {
            "system": "urn:ietf:rfc:4122",
            "value": "{{patientId}}"
          }
        },
        "effectiveDateTime": "2018-11-20T12:05:00+01:00",
        "issued": "2018-03-11T10:28:00+01:00",
        "result": [
          {
            "reference": "urn:uuid:04121321-4af5-424c-a0e1-ed3aab1casd1"
          }
        ]
      }
    },
    {
      "fullUrl": "urn:uuid:04121321-4af5-424c-a0e1-ed3aab1casd1",
      "request": {
        "method": "POST",
        "url": "Observation"
      },
      "resource": {
        "resourceType": "Observation",
        "meta": {
          "profile":  [
            "https://www.medizininformatik-initiative.de/fhir/core/modul-labor/StructureDefinition/ObservationLab"
          ]
        },
        "identifier":  [
          {
            "type": {
              "coding":  [
                {
                  "system": "http://terminology.hl7.org/CodeSystem/v2-0203",
                  "code": "OBI",
                  "display": "obi"
                }
              ]
            },
            "system": "https://www.charite.de/fhir/CodeSystem/lab-identifiers",
            "value": "30239-8_aspartate-aminotransferase-enzymatic-activity-per-volume-in-serum-or-plasma-by-with-p-5-p",
            "assigner": {
              "reference": "Organization/Charité"
            }
          }
        ],
        "category":  [
          {
            "coding":  [
              {
                "system": "http://loinc.org",
                "code": "26436-6",
                "display": "Laboratory studies (set)"
              },
              {
                "system": "http://terminology.hl7.org/CodeSystem/observation-category",
                "code": "laboratory",
                "display": "laboratory"
              }
            ]
          }
        ],
        "valueQuantity": {
          "system": "http://unitsofmeasure.org",
          "value": 34,
          "code": "U/L",
          "unit": "U/L"
        },
        "status": "final",
        "code": {
          "coding":  [
            {
              "code": "30239-8",
              "system": "http://loinc.org",
              "display": "Aspartate aminotransferase [Enzymatic activity/volume] in Serum or Plasma by With P-5-P"
            }
          ],
          "text": "Aspartate aminotransferase"
        },
        "subject": {
          "identifier": {
            "system": "urn:ietf:rfc:4122",
            "value": "{{patientId}}"
          }
        },
        "effectiveDateTime": "2020-10-16T08:49:21+02:00",
        "specimen":
        {
          "reference": "urn:uuid:04121321-4af5-424c-a0e1-ed3aab1casd2"
        }
      }
    },
    {
      "fullUrl": "urn:uuid:04121321-4af5-424c-a0e1-ed3aab1casd2",
      "request": {
        "method": "POST",
        "url": "Specimen"
      },
      "resource": {
        "id": "#2",
        "resourceType": "Specimen",
        "meta": {
          "profile": [
            "http://hl7.org/fhir/StructureDefinition/Specimen"
          ]
        },
        "accessionIdentifier": {
          "assigner": {
            "display": "DISPLAY"
          },
          "id": "ID",
          "type": {
            "text": "URI"
          }
        },
        "subject": {
          "identifier": {
            "system": "urn:ietf:rfc:4122",
            "value": "{{patientId}}"
          }
        },
        "collection": {
          "collectedDateTime": "2011-08-16T06:15:00Z",
          "bodySite": {
            "coding": [
              {
                "system": "http://snomed.info/sct",
                "code": "955009",
                "display": "Bronchial structure (body structure)"
              }
            ]
          }
        }
      }
    }
  ],
  "resourceType": "Bundle",
  "type": "transaction"
}