{
  "resourceType": "Observation",
  "meta": {
    "profile": [
      "https://www.medizininformatik-initiative.de/fhir/modul-mikrobio/StructureDefinition/mii-pr-mikrobio-kultur-nachweis"
    ]
  },
  "contained": [
    {
      "resourceType": "Observation",
      "id": "empf-1",
      "meta": {
        "profile": [
          "https://www.medizininformatik-initiative.de/fhir/modul-mikrobio/StructureDefinition/mii-pr-mikrobio-empfindlichkeit"
        ]
      },
      "identifier": [
        {"extension": [
          {
            "url": "http://hl7.org/fhir/StructureDefinition/data-absent-reason",
            "valueCode": "unsupported"
          }
        ]
        }
      ],
      "status": "final",
      "category": [
        {
          "coding": [
            {
              "system": "http://terminology.hl7.org/CodeSystem/observation-category",
              "code": "laboratory",
              "display": "Laboratory"
            },
            {
              "system": "http://loinc.org",
              "code": "26436-6",
              "display": "Laboratory studies (set)"
            },
            {
              "system": "http://loinc.org",
              "code": "18725-2",
              "display": "Microbiology studies"
            }
          ]
        }
      ],
      "code": {
        "coding": [
          {
            "system": "http://loinc.org",
            "code": "18868-0",
            "display": "Aztreonam [Susceptibility]"
          }
        ]
      },
      "subject": {
        "identifier": {
          "system": "urn:ietf:rfc:4122",
          "value": "07f602e0-579e-4fe3-95af-381728bf0d49"
        }
      },
      "effectiveDateTime": "2018-11-20T12:05:00+01:00",
      "valueQuantity": {
        "system": "http://unitsofmeasure.org",
        "value": 32,
        "code": "mg/L",
        "unit": "mg/L"
      },
      "specimen": {
        "extension": [
          {
            "url": "http://hl7.org/fhir/StructureDefinition/data-absent-reason",
            "valueCode": "unsupported"
          }
        ]
      },
      "interpretation": [
        {
          "coding": [
            {
              "system": "http://snomed.info/sct",
              "code": "1306577009",
              "display": "European Committee on Antimicrobial Susceptibility Testing category 2019 Susceptible, standard dosing regimen"
            }
          ]
        }
      ]
    },
    {
      "resourceType": "Specimen",
      "id": "probe-1",
      "meta": {
        "profile": [
          "http://hl7.org/fhir/StructureDefinition/Specimen"
        ]
      },
      "collection": {
        "collectedDateTime": "2011-08-16T06:15:00Z"
      }
    }
  ],
  "identifier": [
    {"extension": [
      {
        "url": "http://hl7.org/fhir/StructureDefinition/data-absent-reason",
        "valueCode": "unsupported"
      }
    ]
    }
  ],
  "status": "final",
  "category": [
    {
      "coding": [
        {
          "system": "http://terminology.hl7.org/CodeSystem/observation-category",
          "code": "laboratory",
          "display": "Laboratory"
        },
        {
          "system": "http://loinc.org",
          "code": "26436-6",
          "display": "Laboratory studies (set)"
        },
        {
          "system": "http://loinc.org",
          "code": "18725-2",
          "display": "Microbiology studies"
        }
      ]
    }
  ],
  "code": {
    "coding": [
      {
        "system": "http://loinc.org",
        "code": "11475-1",
        "display": "Microorganism identified in Specimen by Culture"
      }
    ]
  },
  "subject": {
    "identifier": {
      "system": "urn:ietf:rfc:4122",
      "value": "07f602e0-579e-4fe3-95af-381728bf0d49"
    }
  },
  "effectiveDateTime": "2018-11-20T12:05:00+01:00",
  "valueCodeableConcept": {
    "coding": [
      {
        "code": "260373001",
        "display": "Detected (qualifier value)"
      }
    ]
  },
  "specimen": {
    "reference": "#probe-1"
  },
  "hasMember": [
    {
      "reference": "#empf-1"
    }
  ],
  "encounter": {
    "identifier": {
      "system": "http://medizininformatik-initiative.de/fhir/NamingSystem/Aufnahmenummer/MusterKrankenhaus",
      "value": "F_0000001"
    }
  },
  "component": [
    {
      "code": {
        "coding": [
          {
            "system": "http://loinc.org",
            "code": "89248-9"
          }
        ]
      },
      "valueCodeableConcept": {
        "coding": [
          {
            "system": "http://snomed.info/sct",
            "code": "840533007",
            "display": "Severe acute respiratory syndrome coronavirus 2 (organism)"
          }
        ]
      }
    }
  ]
}