{
  "resourceType": "Bundle",
  "id": "example-bundle",
  "type": "transaction",
  "entry": [
    {
      "fullUrl": "urn:uuid:00000000-0000-0000-0000-000000000001",
      "request": {
        "method": "POST",
        "url": "ServiceRequest"
      },
      "resource": {
        "resourceType": "ServiceRequest",
        "id": "example-servicerequest-lab",
        "meta": {
          "profile": [
            "https://www.medizininformatik-initiative.de/fhir/core/modul-labor/StructureDefinition/ServiceRequestLab"
          ]
        },
        "identifier": [
          {
            "type": {
              "coding": [
                {
                  "system": "http://terminology.hl7.org/CodeSystem/v2-0203",
                  "code": "MR",
                  "display": "Medical record number"
                }
              ],
              "text": "Medical record identifier"
            },
            "system": "https://fhir.acme.org/identifiers/patient",
            "value": "123456",
            "assigner": {
              "display": "ACME Healthcare"
            }
          }
        ],
        "status": "active",
        "intent": "order",
        "category": [
          {
            "coding": [
              {
                "system": "http://snomed.info/sct",
                "code": "108252007",
                "display": "Laboratory procedure"
              }
            ]
          }
        ],
        "code": {
          "coding": [
            {
              "system": "http://loinc.org",
              "code": "2345-7",
              "display": "Glucose [Mass/volume] in Blood"
            }
          ],
          "text": "Blood Glucose Test"
        },
        "subject": {
          "identifier": {
            "system": "urn:ietf:rfc:4122",
            "value": "4c7d0173-7378-42b2-a9fa-64cd2664674f"
          }
        },
        "authoredOn": "2024-08-24",
        "performer": [
          {
            "reference": "Organization/example-lab",
            "display": "Example Laboratory"
          }
        ],
        "reasonCode": [
          {
            "coding": [
              {
                "system": "http://snomed.info/sct",
                "code": "271737000",
                "display": "High blood glucose level"
              }
            ],
            "text": "Hyperglycemia"
          }
        ],
        "specimen": [
          {
            "reference": "Specimen/example-blood",
            "display": "Blood specimen"
          }
        ],
        "priority": "routine"
      }
    },
    {
      "fullUrl": "urn:uuid:00000000-0000-0000-0000-000000000002",
      "request": {
        "method": "POST",
        "url": "Specimen"
      },
      "resource": {
        "resourceType": "Specimen",
        "id": "example-blood",
        "meta": {
          "profile": [
            "https://www.medizininformatik-initiative.de/fhir/core/modul-labor/StructureDefinition/ObservationLab"
          ]
        },
        "status": "available",
        "type": {
          "coding": [
            {
              "system": "http://snomed.info/sct",
              "code": "122555007",
              "display": "Venous blood specimen"
            }
          ],
          "text": "Venous blood specimen"
        },
        "subject": {
          "identifier": {
            "system": "urn:ietf:rfc:4122",
            "value": "4c7d0173-7378-42b2-a9fa-64cd2664674f"
          }
        },
        "identifier": [
          {
            "system": "http://hospital.org/specimens",
            "value": "SP-987654"
          }
        ],
        "receivedTime": "2024-08-24T09:30:00Z",
        "collection": {
          "collectedDateTime": "2024-08-24T09:00:00Z",
          "collector": {
            "reference": "Practitioner/example-practitioner",
            "display": "Dr. John Doe"
          }
        },
        "note": [
          {
            "text": "Sample collected in the morning."
          }
        ]
      }
    },
    {
      "fullUrl": "urn:uuid:11e05b70-b4e6-11ec-b909-0242ac120002",
      "request": {
        "method": "POST",
        "url": "Organization"
      },
      "resource": {
        "resourceType": "Organization",
        "id": "example-lab",
        "identifier": [
          {
            "system": "http://hospital.org/organizations",
            "value": "ORG-001"
          }
        ],
        "name": "Example Hospital"
      }
    },
    {
      "fullUrl": "urn:uuid:0c8265f1-532a-4a5a-943f-e40eb5a7b557",
      "resource": {
        "resourceType": "DiagnosticReport",
        "id": "example-laborbefund",
        "meta": {
          "profile": [
            "https://www.medizininformatik-initiative.de/fhir/core/modul-labor/StructureDefinition/DiagnosticReportLab"
          ],
          "source": "LaboratorySystem"
        },
        "identifier": [
          {
            "use": "official",
            "system": "http://example-laboratory-system.com/identifiers/reports",
            "value": "12345",
            "type": {
              "coding": [
                {
                  "system": "http://terminology.hl7.org/CodeSystem/v2-0203",
                  "code": "FILL",
                  "display": "Filler Identifier"
                }
              ]
            },
            "assigner": {
              "reference": "Organization/example-lab",
              "display": "Example Lab Organization"
            }
          }
        ],
        "basedOn": [
          {
            "reference": "http://external.fhir.server/ServiceRequest/111"
          }
        ],
        "status": "final",
        "category": [
          {
            "coding": [
              {
                "system": "http://loinc.org",
                "code": "26436-6",
                "display": "Laboratory studies (set)"
              },
              {
                "system": "http://terminology.hl7.org/CodeSystem/v2-0074",
                "code": "LAB",
                "display": "Laboratory"
              }
            ]
          }
        ],
        "code": {
          "coding": [
            {
              "system": "http://loinc.org",
              "code": "11502-2",
              "display": "Laboratory report"
            }
          ],
          "text": "Complete Blood Count"
        },
        "subject": {
          "identifier": {
            "system": "urn:ietf:rfc:4122",
            "value": "07f602e0-579e-4fe3-95af-381728bf0d49"
          }
        },
        "encounter": {
          "reference": "Encounter/456"
        },
        "effectiveDateTime": "2024-08-22T08:30:00Z",
        "issued": "2024-08-22T09:00:00Z",
        "performer": [
          {
            "reference": "Organization/example-lab",
            "display": "Example Lab Organization"
          }
        ],
        "specimen": [
          {
            "reference": "Specimen/example-blood",
            "display": "Blood sample"
          }
        ],
        "result": [
          {
            "reference": "Observation/987",
            "display": "Hemoglobin level"
          }
        ],
        "conclusion": "Normal blood count"
      },
      "request": {
        "method": "POST",
        "url": "DiagnosticReport"
      }
    },
    {
      "fullUrl": "urn:uuid:8ab73d0a-ae92-40a7-9c0b-73c6e5294aee",
      "resource": {
        "resourceType": "Encounter",
        "id": "example",
        "status": "finished",
        "meta": {
          "profile": [
            "https://www.medizininformatik-initiative.de/fhir/core/modul-fall/StructureDefinition/KontaktGesundheitseinrichtung"
          ]
        },
        "class": {
          "system": "http://terminology.hl7.org/CodeSystem/v3-ActCode",
          "code": "AMB",
          "display": "ambulatory"
        },
        "type": [
          {
            "coding": [
              {
                "system": "http://snomed.info/sct",
                "code": "11429006",
                "display": "Consultation"
              }
            ]
          }
        ],
        "subject": {
          "reference": "/Patient?identifier=urn:ietf:rfc:4122|07f602e0-579e-4fe3-95af-381728bf0d49",
          "identifier": {
            "system": "urn:ietf:rfc:4122",
            "value": "07f602e0-579e-4fe3-95af-381728bf0d49"
          }
        },
        "period": {
          "start": "2024-08-21T09:00:00+01:00",
          "end": "2024-08-21T09:30:00+01:00"
        },
        "extension": [
          {
            "url": "http://hl7.org/fhir/5.0/StructureDefinition/extension-Encounter.plannedStartDate",
            "valueDateTime": "2024-08-21T09:00:00+01:00"
          },
          {
            "url": "http://hl7.org/fhir/5.0/StructureDefinition/extension-Encounter.plannedEndDate",
            "valueDateTime": "2024-08-21T09:30:00+01:00"
          }
        ],
        "hospitalization": {
          "admitSource": {
            "coding": [
              {
                "system": "http://terminology.hl7.org/CodeSystem/admit-source",
                "code": "emd",
                "display": "From accident/emergency department"
              }
            ]
          },
          "dischargeDisposition": {
            "coding": [
              {
                "system": "http://terminology.hl7.org/CodeSystem/discharge-disposition",
                "code": "home",
                "display": "Home"
              }
            ],
            "text": "Discharged to home"
          }
        },
        "location": [
          {
            "location": {
              "reference": "Location/example"
            }
          }
        ],
        "serviceProvider": {
          "reference": "Organization/example-lab"
        },
        
        "identifier": [
          {
            "use": "usual",
            "type": {
              "coding": [
                {
                  "system": "http://terminology.hl7.org/CodeSystem/v2-0203",
                  "code": "MR"
                }
              ]
            },
            "system": "http://hospital.smarthealthit.org",
            "value": "12345"
          }
        ],
        "serviceType": {
          "coding": [
            {
              "system": "http://snomed.info/sct",
              "code": "394814009",
              "display": "General practice (specialty) (qualifier value)"
            }
          ],
          "text": "General medicine consultation"
        }
      },
      "request": {
        "method": "POST",
        "url": "Encounter"
      }
    },
    {
      "fullUrl": "urn:uuid:75d2ecd3-0ec5-4a3b-94a0-c7203dde89dc",
      "resource": {
        "resourceType": "Observation",
        "id": "mii-pr-labor-laboruntersuchung",
        "meta": {
          "profile": [
            "https://www.medizininformatik-initiative.de/fhir/core/modul-labor/StructureDefinition/ObservationLab"
          ]
        },
        "status": "final",
        "category": [
          {
            "coding": [
              {
                "system": "http://terminology.hl7.org/CodeSystem/observation-category",
                "code": "laboratory",
                "display": "Laboratory"
              }
            ]
          }
        ],
        "code": {
          "coding": [
            {
              "system": "http://loinc.org",
              "code": "718-7",
              "display": "Hemoglobin [Mass/volume] in Blood"
            }
          ]
        },
        "subject": {
          "reference": "/Patient?identifier=urn:ietf:rfc:4122|07f602e0-579e-4fe3-95af-381728bf0d49",
          "identifier": {
            "system": "urn:ietf:rfc:4122",
            "value": "07f602e0-579e-4fe3-95af-381728bf0d49"
          }
        },
        "effectiveDateTime": "2024-08-22T12:00:00+00:00",
        "issued": "2024-08-22T12:01:00+00:00",
        "valueQuantity": {
          "value": 7.4,
          "unit": "g/dL",
          "system": "http://unitsofmeasure.org",
          "code": "g/dL"
        },
        "performer": [
          {
            "reference": "Organization/example-lab"
          }
        ]
      },
      "request": {
        "method": "POST",
        "url": "Observation"
      }
    }
  ]
}