{
   "resourceType": "Bundle",
   "id": "versorgungsstellenkontaktlatest-bundle",
   "type": "transaction",
   "entry": [
    {
      "fullUrl": "urn:uuid:8ab73d0a-ae92-40a7-9c0b-73c6e5294aee",
      "resource": {
        "resourceType": "Encounter",
        "id": "example",
        "status": "finished",
        "meta": {
          "profile": [
            "https://www.medizininformatik-initiative.de/fhir/core/modul-fall/StructureDefinition/KontaktGesundheitseinrichtung"
          ]
        },
        "class": {
          "system": "http://terminology.hl7.org/CodeSystem/v3-ActCode",
          "code": "AMB",
          "display": "ambulatory"
        },
        "type": [
          {
            "coding": [
              {
                "system": "http://snomed.info/sct",
                "code": "11429006",
                "display": "Consultation"
              }
            ]
          }
        ],
        "subject": {
          "reference": "/Patient?identifier=urn:ietf:rfc:4122|07f602e0-579e-4fe3-95af-381728bf0d49",
          "identifier": {
            "system": "urn:ietf:rfc:4122",
            "value": "07f602e0-579e-4fe3-95af-381728bf0d49"
          }
        },
        "period": {
          "start": "2024-08-21T09:00:00+01:00",
          "end": "2024-08-21T09:30:00+01:00"
        },
        "extension": [
          {
            "url": "http://hl7.org/fhir/5.0/StructureDefinition/extension-Encounter.plannedStartDate",
            "valueDateTime": "2024-08-21T09:00:00+01:00"
          },
          {
            "url": "http://hl7.org/fhir/5.0/StructureDefinition/extension-Encounter.plannedEndDate",
            "valueDateTime": "2024-08-21T09:30:00+01:00"
          }
        ],
        "hospitalization": {
          "admitSource": {
            "coding": [
              {
                "system": "http://terminology.hl7.org/CodeSystem/admit-source",
                "code": "emd",
                "display": "From accident/emergency department"
              }
            ]
          },
          "dischargeDisposition": {
            "coding": [
              {
                "system": "http://terminology.hl7.org/CodeSystem/discharge-disposition",
                "code": "home",
                "display": "Home"
              }
            ],
            "text": "Discharged to home"
          }
        },
        "location": [
          {
            "location": {
              "reference": "Location/example"
            }
          }
        ],
        "serviceProvider": {
          "reference": "Organization/example-lab"
        },
        "identifier": [
          {
            "use": "usual",
            "type": {
              "coding": [
                {
                  "system": "http://terminology.hl7.org/CodeSystem/v2-0203",
                  "code": "MR"
                }
              ]
            },
            "system": "http://hospital.smarthealthit.org",
            "value": "12345"
          }
        ],
        "serviceType": {
          "coding": [
            {
              "system": "http://snomed.info/sct",
              "code": "394814009",
              "display": "General practice (specialty) (qualifier value)"
            }
          ],
          "text": "General medicine consultation"
        }
      },
      "request": {
        "method": "POST",
        "url": "Encounter"
      }
    },
    {
      "fullUrl": "urn:uuid:11e05b70-b4e6-12ec-b909-0242ac120002",
      "request": {
        "method": "POST",
        "url": "Organization"
      },
      "resource": {
        "resourceType": "Organization",
        "id": "example-lab",
        "identifier": [
          {
            "system": "http://hospital.org/organizations",
            "value": "ORG-001"
          }
        ],
        "name": "Example Hospital"
      }
    }
   ]
}