{
  "resourceType": "Bundle",
  "id": "example-bundle",
  "type": "transaction",
  "entry": [
    {
      "fullUrl": "urn:uuid:fe7dd9ae-d1a1-425f-8572-7aef16f257ff",
      "resource": {
        "resourceType": "Condition",
        "id": "example-condition",
        "meta": {
          "source": "Hospital-ABC",
          "profile": [
            "https://www.medizininformatik-initiative.de/fhir/core/modul-diagnose/StructureDefinition/Diagnose"
          ]
        },
        "extension": [
          {
            "url": "http://hl7.org/fhir/StructureDefinition/condition-related",
            "valueReference": {
              "reference": "urn:uuid:fe7dd9ae-d1a1-425f-8572-7aef16f257fd",
              "type": "Condition",
              "identifier": {
                "type": {
                  "coding": [
                    {
                      "system": "http://terminology.hl7.org/CodeSystem/v2-0203",
                      "code": "MR",
                      "display": "Medical record number"
                    }
                  ],
                  "text": "Medical record number"
                },
                "system": "http://localhost:8888/fhir-bridge/fhir/identifiers/conditions",
                "value": "COND-123456",
                "period": {
                  "start": "1993-09-08",
                  "end": "1993-12-13"
                }
              },
              "display": "Related Condition"
            }
          },
          {
            "url": "http://hl7.org/fhir/StructureDefinition/condition-assertedDate",
            "valueDateTime": "2022-02-03T04:05:06Z"
          }
        ],
        "identifier": [
          {
            "system": "http://localhost:8888/fhir-bridge/fhir/identifiers/conditions",
            "value": "1234567890",
            "use": "official",
            "type": {
              "coding": [
                {
                  "system": "http://terminology.hl7.org/CodeSystem/v2-0203",
                  "code": "MR",
                  "display": "Medical record number"
                }
              ],
              "text": "Medical Record Number"
            },
            "assigner": {
              "display": "Example Hospital"
            },
            "period": {
              "start": "2023-01-01",
              "end": "2024-01-01"
            }
          }
        ],
        "clinicalStatus": {
          "coding": [
            {
              "system": "http://terminology.hl7.org/CodeSystem/condition-clinical",
              "code": "active",
              "display": "Active"
            }
          ],
          "text": "Active"
        },
        "verificationStatus": {
          "coding": [
            {
              "system": "http://terminology.hl7.org/CodeSystem/condition-ver-status",
              "code": "confirmed",
              "display": "Confirmed"
            }
          ],
          "text": "Confirmed"
        },
        "category": [
          {
            "coding": [
              {
                "system": "http://terminology.hl7.org/CodeSystem/condition-category",
                "code": "problem-list-item",
                "display": "Problem List Item"
              }
            ],
            "text": "Problem List Item"
          }
        ],
        "severity": {
          "coding": [
            {
              "system": "http://snomed.info/sct",
              "code": "24484000",
              "display": "Severe"
            }
          ],
          "text": "Severe"
        },
        "code": {
          "coding": [
            {
              "extension": [
                {
                  "url": "http://fhir.de/StructureDefinition/icd-10-gm-mehrfachcodierungs-kennzeichen",
                  "valueCoding": {
                    "system": "http://fhir.de/CodeSystem/icd-10-gm-mehrfachcodierungs-kennzeichen",
                    "code": "†",
                    "display": "†"
                  }
                },
                {
                  "url": "http://fhir.de/StructureDefinition/seitenlokalisation",
                  "valueCoding": {
                    "system": "https://fhir.kbv.de/CodeSystem/KBV_CS_SFHIR_ICD_SEITENLOKALISATION",
                    "code": "L",
                    "display": "links"
                  }
                },
                {
                  "url": "http://fhir.de/StructureDefinition/icd-10-gm-diagnosesicherheit",
                  "valueCoding": {
                    "system": "https://fhir.kbv.de/CodeSystem/KBV_CS_SFHIR_ICD_DIAGNOSESICHERHEIT",
                    "code": "G",
                    "display": "gesicherte Diagnose"
                  }
                }
              ],
              "system": "http://fhir.de/CodeSystem/bfarm/icd-10-gm",
              "code": "C34.1",
              "display": "Malignant neoplasm of the upper lobe, bronchus, or lung",
              "version": "2024"
            },
            {
              "system": "http://fhir.de/CodeSystem/bfarm/alpha-id",
              "code": "057E3",
              "display": "secondary malignant neoplasm of lymph nodes",
              "version": "2024"
            },
            {
              "system": "http://snomed.info/sct",
              "code": "128462008",
              "display": "Metastatic malignant neoplasm (disorder)",
              "version": "2024"
            },
            {
              "system": "http://www.orpha.net",
              "code": "1777",
              "display": "lung cancer associated with hereditary syndromes"
            },
            {
              "system": "http://terminology.hl7.org/CodeSystem/icd-o-3",
              "code": "C77.0",
              "display": "Malignant neoplasm of lymph nodes"
            }
          ],
          "text": "Metastatic malignant neoplasm (disorder)"
        },
        "bodySite": [
          {
            "coding": [
              {
                "system": "http://snomed.info/sct",
                "version": "20230131",
                "code": "321667001",
                "display": "Respiratory tract"
              },
              {
                "system": "http://terminology.hl7.org/CodeSystem/icd-o-3",
                "version": "2022",
                "code": "C34.1",
                "display": "Upper lobe, bronchus or lung"
              }
            ],
            "text": "Respiratory tract, Upper lobe, bronchus or lung"
          }
        ],
        "encounter": {
          "reference": "urn:uuid:a6ea47e6-f871-4a1d-a03a-6a8cd3d5909e",
          "display": "Inpatient Encounter for Asthma",
          "type": "Encounter",
          "identifier": {
            "system": "http://localhost:8888/fhir-bridge/fhir/identifiers/encounters",
            "value": "ENC123456",
            "use": "official",
            "type": {
              "coding": [
                {
                  "system": "http://terminology.hl7.org/CodeSystem/v2-0203",
                  "code": "VN",
                  "display": "Visit Number"
                }
              ],
              "text": "Visit Number"
            },
            "assigner": {
              "display": "Example Hospital"
            },
            "period": {
              "start": "2024-01-01T08:00:00Z",
              "end": "2024-01-01T10:00:00Z"
            }
          }
        },
        "subject": {
          "reference": "Patient/1"
        },
        "onsetDateTime": "2024-02-08T00:00:00Z",
        "recordedDate": "2022-02-03T00:00:00Z",
        "note": [
          {
            "text": "Patient confirmed for secondary malignant neoplasm of lymph node.",
            "time": "2024-02-09T12:00:00Z"
          }
        ]
      },
      "request": {
        "method": "POST",
        "url": "Condition"
      }
    },
    {
      "fullUrl": "urn:uuid:fe7dd9ae-d1a1-425f-8572-7aef16f257fd",
      "resource": {
        "resourceType": "Condition",
        "id": "reference-condition",
        "meta": {
          "profile": [
            "http://hl7.org/fhir/StructureDefinition/Condition"
          ],
          "source": "Hospital-ABC"
        },
        "identifier": [
          {
            "system": "http://localhost:8888/fhir-bridge/fhir/identifiers/conditions",
            "value": "COND-123456",
            "use": "official",
            "type": {
              "coding": [
                {
                  "system": "http://terminology.hl7.org/CodeSystem/v2-0203",
                  "code": "MR",
                  "display": "Medical record number"
                }
              ],
              "text": "Medical Record Number"
            },
            "assigner": {
              "display": "Example Hospital"
            }
          }
        ],
        "verificationStatus": {
          "coding": [
            {
              "system": "http://terminology.hl7.org/CodeSystem/condition-ver-status",
              "code": "refuted",
              "display": "Refuted"
            }
          ],
          "text": "Refuted"
        },
        "category": [
          {
            "coding": [
              {
                "system": "http://terminology.hl7.org/CodeSystem/condition-category",
                "code": "problem-list-item",
                "display": "Problem List Item"
              }
            ],
            "text": "Problem List Item"
          }
        ],
        "severity": {
          "coding": [
            {
              "system": "http://snomed.info/sct",
              "code": "246112005",
              "display": "Severity"
            }
          ],
          "text": "Severe"
        },
        "code": {
          "coding": [
            {
              "system": "http://fhir.de/CodeSystem/bfarm/icd-10-gm",
              "code": "C34.1",
              "display": "Malignant neoplasm of upper lobe, bronchus or lung",
              "version": "2024",
              "extension": [
                {
                  "url": "http://fhir.de/StructureDefinition/icd-10-gm-mehrfachcodierungs-kennzeichen",
                  "valueCoding": {
                    "system": "http://fhir.de/CodeSystem/icd-10-gm-mehrfachcodierungs-kennzeichen",
                    "code": "†",
                    "display": "†"
                  }
                },
                {
                  "url": "http://fhir.de/StructureDefinition/seitenlokalisation",
                  "valueCoding": {
                    "system": "https://fhir.kbv.de/CodeSystem/KBV_CS_SFHIR_ICD_SEITENLOKALISATION",
                    "code": "R",
                    "display": "rechts"
                  }
                },
                {
                  "url": "http://fhir.de/StructureDefinition/icd-10-gm-diagnosesicherheit",
                  "valueCoding": {
                    "system": "https://fhir.kbv.de/CodeSystem/KBV_CS_SFHIR_ICD_DIAGNOSESICHERHEIT",
                    "code": "A",
                    "display": "ausgeschlossen"
                  }
                }
              ]
            },
            {
              "system": "http://terminology.hl7.org/CodeSystem/icd-o-3",
              "code": "C34.1",
              "display": "Malignant neoplasm of upper lobe, bronchus or lung"
            },
            {
              "system": "http://fhir.de/CodeSystem/bfarm/alpha-id",
              "code": "098H5",
              "display": "Malignant neoplasm of upper lobe, bronchus or lung, unspecified"
            },
            {
              "system": "http://snomed.info/sct",
              "code": "254626006",
              "display": "Adenocarcinoma of lung (disorder)"
            },
            {
              "system": "http://www.orpha.net",
              "code": "830",
              "display": "Malignant neoplasm of upper lobe, bronchus or lung"
            }
          ],
          "text": "Malignant neoplasm of upper lobe, bronchus or lung"
        },
        "bodySite": [
          {
            "coding": [
              {
                "system": "http://snomed.info/sct",
                "code": "368209003",
                "display": "Right upper arm"
              },
              {
                "system": "http://terminology.hl7.org/CodeSystem/icd-o-3",
                "version": "2022",
                "code": "C34.1",
                "display": "Upper lobe, bronchus or lung"
              }
            ],
            "text": "Entire cardiovascular system"
          }
        ],
        "subject": {
          "reference": "Patient/1"
        },
        "encounter": {
          "reference": "urn:uuid:a6ea47e6-f871-4a1d-a03a-6a8cd3d5909e",
          "display": "Inpatient Encounter for Asthma",
          "type": "Encounter",
          "identifier": {
            "system": "http://localhost:8888/fhir-bridge/fhir/identifiers/encounters",
            "value": "encounter-id-1245",
            "use": "official",
            "type": {
              "coding": [
                {
                  "system": "http://terminology.hl7.org/CodeSystem/v2-0203",
                  "code": "VN",
                  "display": "Visit Number"
                }
              ],
              "text": "Visit Number"
            },
            "assigner": {
              "display": "Example Hospital"
            },
            "period": {
              "start": "2024-01-01T08:00:00Z",
              "end": "2024-01-01T10:00:00Z"
            }
          }
        },
        "onsetDateTime": "2024-02-08T00:00:00Z",
        "recordedDate": "2024-05-02T00:00:00Z",
        "recorder": {
          "display": "Dr. John Doe"
        },
        "asserter": {
          "display": "Dr. John Doe"
        },
        "stage": [
          {
            "summary": {
              "coding": [
                {
                  "system": "http://snomed.info/sct",
                  "code": "258219007",
                  "display": "Stage 2"
                }
              ],
              "text": "Stage 2"
            }
          }
        ],
        "evidence": [
          {
            "code": [
              {
                "coding": [
                  {
                    "system": "http://snomed.info/sct",
                    "code": "127489000",
                    "display": "Has active ingredient"
                  }
                ],
                "text": "Has active ingredient"
              }
            ]
          }
        ],
        "note": [
          {
            "text": "The patient has a history of high blood pressure, now presenting with severe hypertension."
          }
        ]
      },
      "request": {
        "method": "POST",
        "url": "Condition"
      }
    },
    {
      "fullUrl": "urn:uuid:a6ea47e6-f871-4a1d-a03a-6a8cd3d5909e",
      "resource": {
        "meta": {
          "profile": [
            "https://www.medizininformatik-initiative.de/fhir/core/modul-fall/StructureDefinition/KontaktGesundheitseinrichtung"
          ]
        },
        "resourceType": "Encounter",
        "id": "a6ea47e6-f871-4a1d-a03a-6a8cd3d5909e",
        "class": {
          "code": "AMB",
          "display": "ambulatory",
          "system": "http://terminology.hl7.org/CodeSystem/v3-ActCode"
        },
        "identifier": [
          {
            "use": "official",
            "type": {
              "coding": [
                {
                  "system": "http://terminology.hl7.org/CodeSystem/v2-0203",
                  "code": "VN",
                  "display": "Visit number"
                }
              ],
              "text": "Visit number"
            },
            "system": "http://localhost:8888/fhir-bridge/fhir/identifiers/encounters",
            "value": "encounter-id-1245"
          }
        ],
        "status": "finished",
        "subject": {
          "reference": "Patient/1"
        },
        "period": {
          "start": "2024-08-21T09:00:00+01:00",
          "end": "2024-08-21T09:30:00+01:00"
        }
      },
      "request": {
        "method": "POST",
        "url": "Encounter"
      }
    }
  ]
}