{
    "resourceType": "Bundle",
    "id": "example-bundle",
    "type": "transaction",
    "entry": [
        {
            "fullUrl": "urn:uuid:8ab73d0a-ae92-40a7-9c0b-73c6e5294aed",
            "resource": {
                "resourceType": "MedicationAdministration",
                "id": "example-medication-administration",
                "meta": {
                    "profile": [
                        "https://www.medizininformatik-initiative.de/fhir/core/modul-medikation/StructureDefinition/MedicationAdministration"
                    ]
                },
                "identifier": [
                    {
                        "system": "http://localhost:8888/fhir-bridge/fhir/identifiers/medication-administration",
                        "value": "MA123456"
                    }
                ],
                "status": "completed",
                "category": {
                    "coding": [
                        {
                            "system": "http://terminology.hl7.org/CodeSystem/medication-admin-category",
                            "code": "inpatient",
                            "display": "Inpatient"
                        }
                    ],
                    "text": "Inpatient"
                },
                "medicationReference": {
                    "reference": "urn:uuid:5926880e-cb73-4afb-9259-e2e45b4677f1"
                },
                "subject": {
                    "reference": "Patient/1",
                    "identifier": {
                        "system": "urn:ietf:rfc:4122",
                        "value": "1"
                    }
                },
                "context": {
                    "reference": "urn:uuid:2145985c-5036-4500-9a1b-12bd96687072"
                },
                "effectiveDateTime": "2024-08-20T14:30:00Z",
                "performer": [
                    {
                        "actor": {
                            "display": "Dr. John Smith"
                        }
                    }
                ],
                "reasonCode": [
                    {
                        "coding": [
                            {
                                "system": "http://snomed.info/sct",
                                "code": "38341003",
                                "display": "Hypertensive disorder, systemic arterial"
                            }
                        ],
                        "text": "Hypertensive disorder, systemic arterial"
                    }
                ],
                "dosage": {
                    "text": "20 mg orally once daily",
                    "route": {
                        "coding": [
                            {
                                "system": "http://snomed.info/sct",
                                "code": "26643006",
                                "display": "Oral route"
                            }
                        ],
                        "text": "Oral"
                    },
                    "dose": {
                        "value": 250,
                        "unit": "1",
                        "system": "http://unitsofmeasure.org",
                        "code": "mg"
                    },
                    "rateRatio": {
                        "numerator": {
                            "value": 250,
                            "unit": "1",
                            "system": "http://unitsofmeasure.org",
                            "code": "mg"
                        },
                        "denominator": {
                            "value": 8,
                            "unit": "1",
                            "system": "http://unitsofmeasure.org",
                            "code": "h"
                        }
                    }
                }
            },
            "request": {
                "method": "POST",
                "url": "MedicationAdministration"
            }
        },
        {
            "fullUrl": "urn:uuid:5926880e-cb73-4afb-9259-e2e45b4677f1",
            "resource": {
                "resourceType": "Medication",
                "id": "example-medication",
                "meta": {
                    "profile": [
                        "https://www.medizininformatik-initiative.de/fhir/core/modul-medikation/StructureDefinition/Medication"
                    ]
                },
                "code": {
                    "coding": [
                        {
                            "system": "http://www.whocc.no/atc",
                            "code": "N02BE01",
                            "display": "Paracetamol"
                        }
                    ],
                    "text": "Paracetamol 500mg tablet"
                },
                "form": {
                    "coding": [
                        {
                            "system": "http://standardterms.edqm.eu",
                            "code": "10225000",
                            "display": "Gastro-resistant tablet"
                        }
                    ],
                    "text": "tablet"
                },
                "ingredient": [
                    {
                        "itemCodeableConcept": {
                            "coding": [
                                {
                                    "system": "http://fhir.de/CodeSystem/ask",
                                    "code": "01740242",
                                    "display": "Paracetamol"
                                },
                                {
                                    "system": "http://fdasis.nlm.nih.gov",
                                    "code": "O42UQP6Q9F",
                                    "display": "Paracetamol"
                                },
                                {
                                    "system": "http://terminology.hl7.org/CodeSystem/CAS",
                                    "code": "387517004",
                                    "display": "Paracetamol"
                                },
                                {
                                    "system": "http://snomed.info/sct",
                                    "code": "387517004",
                                    "display": "Paracetamol"
                                }
                            ],
                            "text": "Active"
                        },
                        "strength": {
                            "numerator": {
                                "value": 500,
                                "unit": "mg",
                                "system": "http://unitsofmeasure.org",
                                "code": "mg"
                            },
                            "denominator": {
                                "value": 6,
                                "unit": "h",
                                "system": "http://unitsofmeasure.org",
                                "code": "h"
                            }
                        }
                    }
                ]
            },
            "request": {
                "method": "POST",
                "url": "Medication"
            }
        },
        {
            "fullUrl": "urn:uuid:2145985c-5036-4500-9a1b-12bd96687072",
            "resource": {
                "resourceType": "Encounter",
                "id": "encounter-12345",
                "class": {
                    "code": "AMB",
                    "display": "ambulatory",
                    "system": "http://terminology.hl7.org/CodeSystem/v3-ActCode"
                },
                "identifier": [
                    {
                        "use": "official",
                        "type": {
                            "coding": [
                                {
                                    "system": "http://terminology.hl7.org/CodeSystem/v2-0203",
                                    "code": "VN",
                                    "display": "Visit number"
                                }
                            ]
                        },
                        "system": "http://hospital.smarthealthit.org",
                        "value": "encounter-id-1245"
                    }
                ],
                "status": "finished",
                "subject": {
                    "reference": "Patient/1"
                },
                "period": {
                    "start": "2024-08-21T09:00:00+01:00",
                    "end": "2024-08-21T09:30:00+01:00"
                }
            },
            "request": {
                "method": "POST",
                "url": "Encounter"
            }
        },
        {
            "fullUrl": "urn:uuid:70ca1d00-0d8b-42bb-9508-a8fc76e5c72d",
            "resource": {
                "resourceType": "MedicationStatement",
                "id": "example-medicationstatement",
                "meta": {
                    "profile": [
                        "https://www.medizininformatik-initiative.de/fhir/core/modul-medikation/StructureDefinition/MedicationStatement"
                    ]
                },
                "identifier": [
                    {
                        "system": "http://localhost:8888/fhir-bridge/fhir/identifiers/medication-statement",
                        "value": "MS123456"
                    }
                ],
                "basedOn": [
                    {
                        "reference": "MedicationRequest/medicationrequest-lab-id-1234",
                        "display": "Medication request for Aspirin 75 mg oral tablet"
                    }
                ],
                "partOf": [
                    {
                        "reference": "urn:uuid:8ab73d0a-ae92-40a7-9c0b-73c6e5294aed",
                        "display": "example-partOf-medication-administration"
                    }
                ],
                "status": "active",
                "category": {
                    "coding": [
                        {
                            "system": "http://terminology.hl7.org/CodeSystem/medication-statement-category",
                            "code": "inpatient",
                            "display": "Inpatient"
                        },
                        {
                            "system": "http://ihe-d.de/CodeSystems/FallkontextBeiDokumentenerstellung",
                            "code": "E200",
                            "display": "stationärer Aufenthalt"
                        }
                    ],
                    "text": "Inpatient"
                },
                "medicationCodeableConcept": {
                    "coding": [
                        {
                            "system": "http://fhir.de/CodeSystem/ifa/pzn",
                            "code": "04825604",
                            "display": "Aspirin 75 mg oral tablet"
                        },
                        {
                            "system": "http://fhir.de/CodeSystem/bfarm/atc",
                            "code": "B01AC06",
                            "display": "Acetylsalicylic acid (Aspirin)"
                        },
                        {
                            "system": "http://www.whocc.no/atc",
                            "code": "N02BE01",
                            "display": "Paracetamol"
                        }
                    ],
                    "text": "Aspirin 75 mg oral tablet"
                },
                "subject": {
                    "identifier": {
                        "system": "urn:ietf:rfc:4122",
                        "value": "4c7d0173-7378-42b2-a9fa-64cd2664674f"
                    }
                },
                "context": {
                    "reference": "urn:uuid:2145985c-5036-4500-9a1b-12bd96687072"
                },
                "effectiveDateTime": "2024-08-22T08:30:00Z",
                "dateAsserted": "2024-08-21",
                "informationSource": {
                    "display": "practitioner information source"
                },
                "reasonCode": [
                    {
                        "coding": [
                            {
                                "system": "http://snomed.info/sct",
                                "code": "13644009",
                                "display": "Hypercholesterolemia"
                            }
                        ],
                        "text": "High cholesterol"
                    }
                ],
                "reasonReference": [
                    {
                        "reference": "Condition/example-condition"
                    }
                ],
                "note": [
                    {
                        "text": "Patient reports high temperature."
                    }
                ],
                "dosage": [
                    {
                        "text": "1 tablet daily",
                        "sequence": 1,
                        "timing": {
                            "repeat": {
                                "frequency": 2,
                                "period": 1,
                                "periodUnit": "d",
                                "when": [
                                    "AC"
                                ],
                                "offset": 120,
                                "duration": 30,
                                "durationUnit": "d"
                            }
                        },
                        "route": {
                            "coding": [
                                {
                                    "system": "http://standardterms.edqm.eu",
                                    "code": "20009000",
                                    "display": "Epidural use"
                                },
                                {
                                    "system": "http://snomed.info/sct",
                                    "code": "26643006",
                                    "display": "Oral route"
                                }
                            ],
                            "text": "Oral"
                        },
                        "site": {
                            "coding": [
                                {
                                    "system": "http://snomed.info/sct",
                                    "code": "368208006",
                                    "display": "Left upper arm structure"
                                }
                            ],
                            "text": "site left upper arm"
                        },
                        "asNeededBoolean": true,
                        "doseAndRate": [
                            {
                                "doseQuantity": {
                                    "value": 81,
                                    "unit": "mg",
                                    "system": "http://unitsofmeasure.org",
                                    "code": "mg"
                                }
                            }
                        ],
                        "maxDosePerPeriod": {
                            "numerator": {
                                "value": 250,
                                "unit": "mg",
                                "system": "http://unitsofmeasure.org",
                                "code": "mg"
                            },
                            "denominator": {
                                "value": 8,
                                "unit": "h",
                                "system": "http://unitsofmeasure.org",
                                "code": "h"
                            }
                        },
                        "maxDosePerAdministration": {
                            "value": 250,
                            "unit": "mg",
                            "system": "http://unitsofmeasure.org",
                            "code": "mg"
                        }
                    }
                ]
            },
            "request": {
                "method": "POST",
                "url": "MedicationStatement"
            }
        }
    ]
}