{
    "resourceType": "Bundle",
    "id": "example-bundle",
    "type": "transaction",
    "entry": [
        {
            "fullUrl": "urn:uuid:8ab73d0a-ae92-40a7-9c0b-73c6e5294aed",
            "resource": {
                "resourceType": "MedicationAdministration",
                "id": "example-medication-administration",
                "meta": {
                    "profile": [
                        "https://www.medizininformatik-initiative.de/fhir/core/modul-medikation/StructureDefinition/MedicationAdministration"
                    ]
                },
                "identifier": [
                    {
                        "system": "http://localhost:8888/fhir-bridge/fhir/identifiers/medication-administration",
                        "value": "MA123456"
                    }
                ],
                "status": "completed",
                "category": {
                    "coding": [
                        {
                            "system": "http://terminology.hl7.org/CodeSystem/medication-admin-category",
                            "code": "inpatient",
                            "display": "Inpatient"
                        }
                    ]
                },
                "medicationReference": {
                    "reference": "Medication/example-medication"
                },
                "subject": {
                    "reference": "Patient/b7e98761-ecd7-43d1-9faa-1d600004b3f0",
                    "identifier": {
                        "system": "urn:ietf:rfc:4122",
                        "value": "07f602e0-579e-4fe3-95af-381728bf0d49"
                    }
                },
                "context": {
                    "reference": "Encounter/encounter-12345"
                },
                "effectiveDateTime": "2024-08-20T14:30:00Z",
                "performer": [
                    {
                        "actor": {
                            "reference": "Practitioner/example-practitioner",
                            "display": "Dr. John Smith"
                        }
                    }
                ],
                "reasonCode": [
                    {
                        "coding": [
                            {
                                "system": "http://snomed.info/sct",
                                "code": "38341003",
                                "display": "Hypertensive disorder, systemic arterial"
                            }
                        ]
                    }
                ],
                "dosage": {
                    "text": "20 mg orally once daily",
                    "route": {
                        "coding": [
                            {
                                "system": "http://snomed.info/sct",
                                "code": "26643006",
                                "display": "Oral route"
                            }
                        ],
                        "text": "Oral"
                    },
                    "dose": {
                        "value": 250,
                        "unit": "mg",
                        "system": "http://unitsofmeasure.org",
                        "code": "mg"
                    },
                    "rateRatio": {
                        "numerator": {
                            "value": 250,
                            "unit": "mg",
                            "system": "http://unitsofmeasure.org",
                            "code": "mg"
                        },
                        "denominator": {
                            "value": 8,
                            "unit": "h",
                            "system": "http://unitsofmeasure.org",
                            "code": "h"
                        }
                    }
                }
            },
            "request": {
                "method": "POST",
                "url": "MedicationAdministration"
            }
        },
        {
            "fullUrl": "Medication/example-medication",
            "resource": {
                "resourceType": "Medication",
                "id": "example-medication",
                "meta": {
                    "profile": [
                        "https://www.medizininformatik-initiative.de/fhir/core/modul-medikation/StructureDefinition/Medication"
                    ]
                },
                "code": {
                    "coding": [
                        {
                            "system": "http://www.whocc.no/atc",
                            "code": "N02BE01",
                            "display": "Paracetamol"
                        }
                    ],
                    "text": "Paracetamol 500mg tablet"
                },
                "form": {
                    "coding": [
                        {
                            "system": "http://standardterms.edqm.eu",
                            "code": "10225000",
                            "display": "Gastro-resistant tablet"
                        }
                    ]
                },
                "ingredient": [
                    {
                        "itemCodeableConcept": {
                            "coding": [
                                {
                                    "system": "http://www.whocc.no/atc",
                                    "code": "N02BE01",
                                    "display": "Paracetamol"
                                }
                            ],
                            "text": "Paracetamol"
                        },
                        "strength": {
                            "numerator": {
                                "value": 500,
                                "unit": "mg",
                                "system": "http://unitsofmeasure.org",
                                "code": "mg"
                            },
                            "denominator": {
                                "value": 1,
                                "unit": "tablet",
                                "system": "http://unitsofmeasure.org",
                                "code": "tablet"
                            }
                        }
                    }
                ]
            },
            "request": {
                "method": "POST",
                "url": "Medication"
            }
        },
        {
            "fullUrl": "Encounter/encounter-12345",
            "resource": {
                "resourceType": "Encounter",
                "id": "encounter-12345",
                "class": {
                    "code": "AMB",
                    "display": "ambulatory",
                    "system": "http://terminology.hl7.org/CodeSystem/v3-ActCode"
                },
                "identifier": [
                    {
                        "use": "official",
                        "type": {
                            "coding": [
                                {
                                    "system": "http://terminology.hl7.org/CodeSystem/v2-0203",
                                    "code": "VN",
                                    "display": "Visit number"
                                }
                            ]
                        },
                        "system": "http://hospital.smarthealthit.org",
                        "value": "encounter-id-1245"
                    }
                ],
                "status": "finished",
                "subject": {
                    "reference": "Patient/b7e98761-ecd7-43d1-9faa-1d600004b3f0"
                },
                "period": {
                    "start": "2024-08-21T09:00:00+01:00",
                    "end": "2024-08-21T09:30:00+01:00"
                }
            },
            "request": {
                "method": "POST",
                "url": "Encounter"
            }
        },
        {
            "fullUrl": "urn:uuid:70ca1d00-0d8b-42bb-9508-a8fc76e5c72d",
            "resource": {
                "resourceType": "MedicationStatement",
                "id": "example-medicationstatement",
                "meta": {
                    "profile": [
                        "https://www.medizininformatik-initiative.de/fhir/core/modul-medikation/StructureDefinition/MedicationStatement"
                    ]
                },
                "status": "active",
                "medicationCodeableConcept": {
                    "coding": [
                        {
                            "system": "http://snomed.info/sct",
                            "code": "319775004",
                            "display": "Aspirin 75 mg oral tablet"
                        }
                    ],
                    "text": "Aspirin 75 mg oral tablet"
                },
                "subject": {
                    "identifier": {
                        "system": "urn:ietf:rfc:4122",
                        "value": "4c7d0173-7378-42b2-a9fa-64cd2664674f"
                    }
                }
            },
            "request": {
                "method": "POST",
                "url": "MedicationStatement"
            }
        }
    ]
}