{
  "resourceType": "Bundle",
  "id": "example-bundle",
  "type": "transaction",
  "entry": [
    {
      "fullUrl": "urn:uuid:04121321-4af5-424c-a0e1-ed3aab1c589d",
      "resource": {
        "resourceType": "Patient",
        "id": "example-patient",
        "meta": {
          "profile": [
            "https://www.medizininformatik-initiative.de/fhir/core/modul-person/StructureDefinition/Patient"
          ]
        },
        "identifier": [
          {
            "use": "official",
            "type": {
              "coding": [
                {
                  "system": "http://fhir.de/CodeSystem/identifier-type-de-basis",
                  "code": "KVZ10",
                  "display": "Krankenversichertennummer"
                },
                {
                  "system": "http://fhir.de/CodeSystem/identifier-type-de-basis",
                  "code": "GKV",
                  "display": "Gesetzliche Krankenversicherung"
                }
              ],
              "text": "versichertenId_GKV"
            },
            "system": "http://fhir.de/sid/gkv/kvid-10",
            "value": "K123456789",
            "assigner": {
              "identifier": {
                "type": {
                  "coding": [
                    {
                      "system": "http://terminology.hl7.org/CodeSystem/v2-0203",
                      "code": "XX",
                      "display": "Organisations-ID"
                    }
                  ],
                  "text": "Health Insurance ID"
                },
                "system": "http://fhir.de/sid/arge-ik/iknr",
                "value": "123456789"
              },
              "display": "German Public Health Insurance"
            }
          },
          {
            "use": "usual",
            "type": {
              "coding": [
                {
                  "system": "http://terminology.hl7.org/CodeSystem/v2-0203",
                  "code": "MR",
                  "display": "Medical record number"
                }
              ],
              "text": "pid"
            },
            "system": "http://www.acme.com/identifiers/patient",
            "value": "PID987654321",
            "assigner": {
              "display": "Example Hospital",
              "identifier": {
                "type": {
                  "coding": [
                    {
                      "system": "http://terminology.hl7.org/CodeSystem/v2-0203",
                      "code": "XX"
                    }
                  ]
                },
                "system": "http://www.acme.com/identifiers/patient",
                "value": "ASSIGNER002"
              }
            }
          },
          {
            "use": "secondary",
            "type": {
              "coding": [
                {
                  "system": "http://fhir.de/CodeSystem/identifier-type-de-basis",
                  "code": "PKV",
                  "display": "Private Krankenversicherung"
                }
              ]
            },
            "system": "http://localhost:8888/fhir-bridge/fhir/identifiers/patient",
            "value": "PKV543210987",
            "assigner": {
              "display": "German Private Health Insurance"
            }
          }
        ],
        "name": [
          {
            "family": "official family name",
            "_family": {
              "extension": [
                {
                  "url": "http://fhir.de/StructureDefinition/humanname-namenszusatz",
                  "valueString": "Doe"
                },
                {
                  "url": "http://hl7.org/fhir/StructureDefinition/humanname-own-name",
                  "valueString": "John"
                },
                {
                  "url": "http://hl7.org/fhir/StructureDefinition/humanname-own-prefix",
                  "valueString": "zu"
                }
              ]
            },
            "given": [
              "John"
            ],
            "text": "John Doe",
            "use": "official",
            "prefix": [
              "Mr."
            ]
          },
          {
            "family": "official family name",
            "_family": {
              "extension": [
                {
                  "url": "http://fhir.de/StructureDefinition/humanname-namenszusatz",
                  "valueString": "Von"
                },
                {
                  "url": "http://hl7.org/fhir/StructureDefinition/humanname-own-name",
                  "valueString": "Smith"
                },
                {
                  "url": "http://hl7.org/fhir/StructureDefinition/humanname-own-name",
                  "valueString": "zu"
                }
              ]
            },
            "text": "Von Smith",
            "use": "maiden"
          }
        ],
        "gender": "male",
        "birthDate": "1980-01-01",
        "deceasedBoolean": true,
        "address": [
          {
            "extension": [
              {
                "url": "http://hl7.org/fhir/StructureDefinition/iso21090-ADXP-precinct",
                "valueString": "Mitte"
              }
            ],
            "use": "home",
            "type": "both",
            "line": [
              "Mitte"
            ],
            "_line": [
              {
                "extension": [
                  {
                    "url": "http://hl7.org/fhir/StructureDefinition/iso21090-ADXP-streetName",
                    "valueString": "123 Main St"
                  },
                  {
                    "url": "http://hl7.org/fhir/StructureDefinition/iso21090-ADXP-houseNumber",
                    "valueString": "Apt 4B"
                  },
                  {
                    "url": "http://hl7.org/fhir/StructureDefinition/iso21090-ADXP-additionalLocator",
                    "valueString": "Wohnung 3"
                  }
                ]
              }
            ],
            "city": "Hamburg",
            "_city": [
              {
                "extension": [
                  {
                    "url": "http://fhir.de/StructureDefinition/destatis/ags",
                    "valueString": "Hamburg"
                  }
                ]
              }
            ],
            "state": "DE-HH",
            "postalCode": "20095",
            "country": "DE"
          },
          {
            "extension": [
              {
                "url": "http://hl7.org/fhir/StructureDefinition/iso21090-ADXP-precinct",
                "valueString": "Kreuzberg"
              }
            ],
            "use": "billing",
            "type": "postal",
            "line": [
              "Kreuzberg"
            ],
            "_line": [
              {
                "extension": [
                  {
                    "url": "http://hl7.org/fhir/StructureDefinition/iso21090-ADXP-postBox",
                    "valueString": "Musterstrasse"
                  }
                ]
              }
            ],
            "city": "Berlin",
            "_city": [
              {
                "extension": [
                  {
                    "url": "http://fhir.de/StructureDefinition/destatis/ags",
                    "valueString": "Berlin"
                  }
                ]
              }
            ],
            "state": "DE-BE",
            "postalCode": "10997",
            "country": "DE"
          }
        ],
        "contact": [
          {
            "relationship": [
              {
                "coding": [
                  {
                    "system": "http://terminology.hl7.org/CodeSystem/v2-0131",
                    "code": "C",
                    "display": "Emergency Contact"
                  }
                ],
                "text": "Emergency Contact"
              }
            ],
            "name": {
              "use": "official",
              "given": [
                "John"
              ],
              "family": "Smith",
              "prefix": [
                "Mr."
              ]
            },
            "telecom": [
              {
                "system": "phone",
                "value": "+1-555-1234"
              },
              {
                "system": "email",
                "value": "jane.doe@example.com"
              }
            ],
            "organization": {
              "reference": "urn:uuid:f2201de3-7a9b-4ed6-b0b0-e4d840de2f0a",
              "display": "Organization"
            }
          }
        ],
        "managingOrganization": {
          "reference": "urn:uuid:f2201de3-7a9b-4ed6-b0b0-e4d840de2f0a",
          "display": "managing Organization"
        }
      },
      "request": {
        "method": "POST",
        "url": "Patient"
      }
    },
    {
      "fullUrl": "urn:uuid:4127965e-ebd6-411d-bcc8-4bd4491da96a",
      "resource": {
        "resourceType": "Condition",
        "id": "example-cause-of-death",
        "meta": {
          "profile": [
            "https://www.medizininformatik-initiative.de/fhir/core/modul-person/StructureDefinition/Todesursache"
          ],
          "versionId": "1",
          "lastUpdated": "2024-08-24T00:00:00Z"
        },
        "identifier": [
          {
            "use": "official",
            "system": "http://hospital.example.org",
            "value": "123456"
          }
        ],
        "clinicalStatus": {
          "coding": [
            {
              "system": "http://terminology.hl7.org/CodeSystem/condition-clinical",
              "code": "resolved",
              "display": "Resolved"
            }
          ],
          "text": "Resolved"
        },
        "verificationStatus": {
          "coding": [
            {
              "system": "http://terminology.hl7.org/CodeSystem/condition-ver-status",
              "code": "confirmed",
              "display": "Confirmed"
            }
          ],
          "text": "Confirmed"
        },
        "category": [
          {
            "coding": [
              {
                "system": "http://snomed.info/sct",
                "code": "16100001",
                "display": "Death diagnosis"
              },
              {
                "system": "http://loinc.org",
                "code": "79378-6",
                "display": "Covid-19 SARS-CoV-2 (severe acute respiratory syndrome coronavirus 2) RNA panel"
              }
            ],
            "text": "Cause of death"
          }
        ],
        "code": {
          "coding": [
            {
              "system": "http://hl7.org/fhir/sid/icd-10",
              "version": "1",
              "code": "I60",
              "display": "Subarachnoid hemorrhage"
            }
          ],
          "text": "Subarachnoid hemorrhage"
        },
        "subject": {
          "reference": "urn:uuid:04121321-4af5-424c-a0e1-ed3aab1c589d"
        },
        "recordedDate": "2024-08-24T00:00:00Z",
        "note": [
          {
            "text": "This condition is recorded as the cause of death based on the patient's medical history."
          }
        ]
      },
      "request": {
        "method": "POST",
        "url": "Condition"
      }
    },
    {
      "fullUrl": "urn:uuid:5114281c-218a-482d-9127-da37bdc05501",
      "resource": {
        "resourceType": "Observation",
        "id": "vitalstatus-example",
        "meta": {
          "profile": [
            "https://www.medizininformatik-initiative.de/fhir/core/modul-person/StructureDefinition/Vitalstatus"
          ]
        },
        "status": "final",
        "category": [
          {
            "coding": [
              {
                "system": "http://terminology.hl7.org/CodeSystem/observation-category",
                "code": "survey",
                "display": "Survey"
              }
            ],
            "text": "Vital signs"
          }
        ],
        "code": {
          "coding": [
            {
              "system": "http://loinc.org",
              "code": "67162-8",
              "display": "Vital signs"
            }
          ],
          "text": "Vital signs"
        },
        "subject": {
          "reference": "urn:uuid:04121321-4af5-424c-a0e1-ed3aab1c589d"
        },
        "effectiveDateTime": "2024-08-21T14:30:00+00:00",
        "valueCodeableConcept": {
          "coding": [
            {
              "system": "https://www.medizininformatik-initiative.de/fhir/core/modul-person/CodeSystem/Vitalstatus",
              "code": "T",
              "display": "Patient verstorben"
            }
          ],
          "text": "Patient verstorben"
        },
        "note": [
          {
            "text": "The patient is recorded Dead. Cause of death is based on the patient's medical history."
          }
        ],
        "performer": [
          {
            "reference": "urn:uuid:42a8d7bb-c440-439b-8377-262b24b4e4cd"
          }
        ]
      },
      "request": {
        "method": "POST",
        "url": "Observation"
      }
    },
    {
      "fullUrl": "urn:uuid:f2201de3-7a9b-4ed6-b0b0-e4d840de2f0a",
      "request": {
        "method": "POST",
        "url": "Organization"
      },
      "resource": {
        "resourceType": "Organization",
        "id": "example-administrative-organization",
        "name": "Example Administrative Organization",
        "identifier": [
          {
            "system": "http://hl7.org/fhir/identifier",
            "value": "ORG-98765"
          }
        ]
      }
    },
    {
      "fullUrl": "urn:uuid:42a8d7bb-c440-439b-8377-262b24b4e4cd",
      "request": {
        "method": "POST",
        "url": "Organization"
      },
      "resource": {
        "resourceType": "Organization",
        "id": "example-health-clinic",
        "name": "Example Health Clinic",
        "identifier": [
          {
            "system": "http://hl7.org/fhir/identifier",
            "value": "ORG-12345"
          }
        ]
      }
    }
  ]
}