{
  "resourceType": "Bundle",
  "id": "example-bundle",
  "type": "transaction",
  "entry": [
    {
      "fullUrl": "urn:uuid:0c8265f0-532a-4a5a-943f-e40eb5a7b557",
      "resource": {
        "resourceType": "DiagnosticReport",
        "id": "example-laborbefund",
        "meta": {
          "profile": [
            "https://www.medizininformatik-initiative.de/fhir/core/modul-labor/StructureDefinition/DiagnosticReportLab"
          ],
          "source": "LaboratorySystem"
        },
        "identifier": [
          {
            "use": "official",
            "system": "http://example-laboratory-system.com/identifiers/reports",
            "value": "12345",
            "type": {
              "coding": [
                {
                  "system": "http://terminology.hl7.org/CodeSystem/v2-0203",
                  "code": "FILL",
                  "display": "Filler Identifier"
                }
              ]
            },
            "assigner": {
              "reference": "Organization/5678",
              "display": "Organization"
            }
          }
        ],
        "basedOn": [
          {
            "reference": "http://external.fhir.server/ServiceRequest/111"
          }
        ],
        "status": "final",
        "category": [
          {
            "coding": [
              {
                "system": "http://loinc.org",
                "code": "26436-6",
                "display": "Laboratory studies (set)"
              },
              {
                "system": "http://terminology.hl7.org/CodeSystem/v2-0074",
                "code": "LAB",
                "display": "Laboratory"
              }
            ]
          }
        ],
        "code": {
          "coding": [
            {
              "system": "http://loinc.org",
              "code": "11502-2",
              "display": "Laboratory report"
            }
          ],
          "text": "Complete Blood Count"
        },
        "subject": {
          "identifier": {
            "system": "urn:ietf:rfc:4122",
            "value": "07f602e0-579e-4fe3-95af-381728bf0d49"
          }
        },
        "effectiveDateTime": "2024-08-22T08:30:00Z",
        "issued": "2024-08-22T09:00:00Z",
        "performer": [
          {
            "reference": "Organization/5678",
            "display": "Organization"
          }
        ],
        "specimen": [
          {
            "reference": "Specimen/example-blood",
            "display": "Blood sample"
          }
        ],
        "result": [
          {
            "reference": "Observation/mii-pr-labor-laboruntersuchung",
            "display": "Hemoglobin level"
          }
        ],
        "conclusion": "Normal blood count"
      },
      "request": {
        "method": "POST",
        "url": "DiagnosticReport"
      }
    },
    {
      "fullUrl": "urn:uuid:00000000-0000-0000-0000-000000000002",
      "request": {
        "method": "POST",
        "url": "Specimen"
      },
      "resource": {
        "resourceType": "Specimen",
        "id": "example-blood",
        "meta": {
          "profile": [
            "https://www.medizininformatik-initiative.de/fhir/core/modul-labor/StructureDefinition/ObservationLab"
          ]
        },
        "status": "available",
        "type": {
          "coding": [
            {
              "system": "http://snomed.info/sct",
              "code": "122555007",
              "display": "Venous blood specimen"
            }
          ],
          "text": "Venous blood specimen"
        },
        "subject": {
          "identifier": {
            "system": "urn:ietf:rfc:4122",
            "value": "4c7d0173-7378-42b2-a9fa-64cd2664674f"
          }
        },
        "identifier": [
          {
            "system": "http://hospital.org/specimens",
            "value": "SP-987654"
          }
        ],
        "receivedTime": "2024-08-24T09:30:00Z",
        "collection": {
          "collectedDateTime": "2024-08-24T09:00:00Z",
          "collector": {
            "reference": "Practitioner/example-practitioner",
            "display": "Dr. John Doe"
          }
        },
        "note": [
          {
            "text": "Sample collected in the morning."
          }
        ]
      }
    },
    {
      "fullUrl": "urn:uuid:04121321-4af5-424c-a0e1-ed3aab1c589d",
      "resource": {
        "resourceType": "Patient",
        "id": "example-patient",
        "meta": {
          "profile": [
            "https://www.medizininformatik-initiative.de/fhir/core/modul-person/StructureDefinition/Patient"
          ]
        },
        "identifier": [
          {
            "use": "usual",
            "type": {
              "coding": [
                {
                  "system": "http://terminology.hl7.org/CodeSystem/v2-0203",
                  "code": "MR"
                }
              ]
            },
            "system": "http://hospital.smarthealthit.org",
            "value": "12345",
            "assigner": {
              "display": "Good Health Hospital",
              "identifier": {
                "type": {
                  "coding": [
                    {
                      "system": "http://terminology.hl7.org/CodeSystem/v2-0203",
                      "code": "FAC"
                    }
                  ]
                },
                "system": "http://goodhealth.org/fhir/NamingSystem/identifier",
                "value": "GHH"
              }
            }
          }
        ],
        "name": [
          {
            "use": "official",
            "family": "Doe",
            "given": [
              "John"
            ],
            "prefix": [
              "Mr."
            ]
          }
        ],
        "gender": "male",
        "birthDate": "1980-01-01",
        "deceasedBoolean": true,
        "address": [
          {
            "use": "home",
            "type": "both",
            "line": [
              "123 Main St",
              "Apt 4B"
            ],
            "city": "Metropolis",
            "state": "CA",
            "postalCode": "12345",
            "country": "USA"
          },
          {
            "use": "temp",
            "line": [
              "PO Box 456"
            ],
            "city": "Anytown",
            "state": "CA",
            "postalCode": "90210",
            "country": "USA"
          }
        ],
        "contact": [
          {
            "relationship": [
              {
                "coding": [
                  {
                    "system": "http://hl7.org/fhir/ValueSet/contact-relationship",
                    "code": "emergency",
                    "display": "Emergency Contact"
                  }
                ]
              }
            ],
            "name": {
              "use": "official",
              "given": [
                "John"
              ],
              "family": "Smith"
            },
            "telecom": [
              {
                "system": "phone",
                "value": "+1-555-1234"
              },
              {
                "system": "email",
                "value": "jane.doe@example.com"
              }
            ],
            "organization": [
              {
                "reference": "Organization/5678",
                "display": "Organization"
              }
            ]
          }
        ],
        "managingOrganization": [
          {
            "reference": "Organization/1234",
            "display": "managing Organization"
          }
        ]
      },
      "request": {
        "method": "POST",
        "url": "Patient"
      }
    },
    {
      "fullUrl": "urn:uuid:fe7dd9ae-d1a1-425f-8572-7aef16f257ff",
      "resource": {
        "resourceType": "Condition",
        "id": "example-condition",
        "meta": {
          "source": "Hospital-ABC",
          "profile": [
            "https://www.medizininformatik-initiative.de/fhir/core/modul-diagnose/StructureDefinition/Diagnose"
          ]
        },
        "extension": [
          {
            "url": "http://hl7.org/fhir/StructureDefinition/condition-related",
            "valueReference": {
              "reference": "Condition/related-condition",
              "type": "Condition",
              "identifier": {
                "type": {
                  "coding": [
                    {
                      "system": "http://terminology.hl7.org/CodeSystem/v2-0203",
                      "code": "MR",
                      "display": "Medical record number"
                    }
                  ],
                  "text": "Medical record number"
                },
                "system": "http://hospital.smarthealthit.org/conditions",
                "value": "CON123456",
                "period": {
                  "start": "1993-09-08",
                  "end": "1993-12-13"
                }
              },
              "display": "Related Condition"
            }
          },
          {
            "url": "http://hl7.org/fhir/StructureDefinition/condition-assertedDate",
            "valueDateTime": "2017-04-21"
          }
        ],
        "clinicalStatus": {
          "coding": [
            {
              "system": "http://terminology.hl7.org/CodeSystem/condition-clinical",
              "code": "active",
              "display": "Active"
            }
          ]
        },
        "code": {
          "coding": [
            {
              "system": "http://fhir.de/CodeSystem/bfarm/icd-10-gm",
              "code": "J45",
              "display": "Asthma"
            },
            {
              "system": "http://snomed.info/sct",
              "code": "195967001",
              "display": "Asthma"
            }
          ],
          "text": "Asthma"
        },
        "bodySite": [
          {
            "coding": [
              {
                "system": "http://snomed.info/sct",
                "code": "321667001",
                "display": "Respiratory tract"
              }
            ]
          }
        ],
        "subject": {
          "reference": "Patient/example-patient"
        },
        "onsetDateTime": "2024-02-08T00:00:00Z",
        "recordedDate": "2024-02-08T00:00:00Z",
        "note": [
          {
            "text": "Patient has a history of asthma."
          }
        ]
      },
      "request": {
        "method": "POST",
        "url": "Condition"
      }
    },
    {
      "fullUrl": "urn:uuid:70ca7d00-0d8b-42bb-9508-a8ed76e5c72d",
      "resource": {
        "resourceType": "Medication",
        "id": "example-medication",
        "meta": {
          "profile": [
            "https://www.medizininformatik-initiative.de/fhir/core/modul-medikation/StructureDefinition/Medication"
          ]
        },
        "code": {
          "coding": [
            {
              "system": "http://www.whocc.no/atc",
              "code": "N02BE01",
              "display": "Paracetamol"
            }
          ],
          "text": "Paracetamol 500mg tablet"
        },
        "form": {
          "coding": [
            {
              "system": "http://standardterms.edqm.eu",
              "code": "385055001",
              "display": "Tablet"
            }
          ]
        },
        "ingredient": [
          {
            "itemCodeableConcept": {
              "coding": [
                {
                  "system": "http://www.whocc.no/atc",
                  "code": "N02BE01",
                  "display": "Paracetamol"
                }
              ],
              "text": "Paracetamol"
            },
            "strength": {
              "numerator": {
                "value": 500,
                "unit": "mg",
                "system": "http://unitsofmeasure.org",
                "code": "mg"
              },
              "denominator": {
                "value": 1,
                "unit": "tablet",
                "system": "http://unitsofmeasure.org",
                "code": "tablet"
              }
            }
          }
        ]
      },
      "request": {
        "method": "POST",
        "url": "Medication"
      }
    },
    {
      "fullUrl": "urn:uuid:75d2ecd3-1ec5-4a3b-94a0-c7203dde89dc",
      "resource": {
        "resourceType": "Observation",
        "id": "mii-pr-labor-laboruntersuchung",
        "meta": {
          "profile": [
            "https://www.medizininformatik-initiative.de/fhir/core/modul-labor/StructureDefinition/ObservationLab"
          ]
        },
        "status": "final",
        "category": [
          {
            "coding": [
              {
                "system": "http://terminology.hl7.org/CodeSystem/observation-category",
                "code": "laboratory",
                "display": "Laboratory"
              }
            ]
          }
        ],
        "code": {
          "coding": [
            {
              "system": "http://loinc.org",
              "code": "718-7",
              "display": "Hemoglobin [Mass/volume] in Blood"
            }
          ]
        },
        "subject": {
          "reference": "/Patient?identifier=urn:ietf:rfc:4122|07f602e0-579e-4fe3-95af-381728bf0d49",
          "identifier": {
            "system": "urn:ietf:rfc:4122",
            "value": "07f602e0-579e-4fe3-95af-381728bf0d49"
          }
        },
        "effectiveDateTime": "2024-08-22T12:00:00+00:00",
        "issued": "2024-08-22T12:01:00+00:00",
        "valueQuantity": {
          "value": 7.4,
          "unit": "g/dL",
          "system": "http://unitsofmeasure.org",
          "code": "g/dL"
        },
        "performer": [
          {
            "reference": "Organization/5678"
          }
        ]
      },
      "request": {
        "method": "POST",
        "url": "Observation"
      }
    },
    {
      "fullUrl": "urn:uuid:11e05b70-b4e6-11ec-b909-0242ac120002",
      "request": {
        "method": "POST",
        "url": "Organization"
      },
      "resource": {
        "resourceType": "Organization",
        "id": "5678",
        "identifier": [
          {
            "system": "http://hospital.org/organizations",
            "value": "ORG-001"
          }
        ],
        "name": "Example Hospital"
      }
    },
    {
      "fullUrl": "urn:uuid:00000000-0000-0000-0000-000000000002",
      "request": {
        "method": "POST",
        "url": "Organization"
      },
      "resource": {
        "resourceType": "Organization",
        "id": "1234",
        "name": "Example Administrative Organization",
        "identifier": [
          {
            "system": "http://hl7.org/fhir/identifier",
            "value": "ORG-98765"
          }
        ]
      }
    }
  ]
}