{
  "resourceType": "Bundle",
  "id": "bundle-transaction-bga",
  "meta": {
    "lastUpdated": "2020-09-24T05:33:00Z"
  },
  "type": "transaction",
  "entry": [
    {
      "fullUrl": "urn:uuid:220767b9-5760-40b8-8741-8772dae04c3f",
      "resource": {
        "resourceType": "Observation",
        "meta": {
          "profile": [
            "https://www.netzwerk-universitaetsmedizin.de/fhir/StructureDefinition/sars-cov-2-ab-pnl-ser-pl-ia"
          ]
        },
        "identifier": [
          {
            "type": {
              "coding": [
                {
                  "system": "http://terminology.hl7.org/CodeSystem/v2-0203",
                  "code": "OBI"
                }
              ]
            },
            "system": "https://www.charite.de/fhir/CodeSystem/lab-identifiers",
            "value": "94504-8_SARS-CoV-2-Ab-Panel",
            "assigner": {
              "reference": "Organization/Charité"
            }
          }
        ],
        "status": "final",
        "category": [
          {
            "coding": [
              {
                "system": "http://loinc.org",
                "code": "26436-6"
              },
              {
                "system": "http://terminology.hl7.org/CodeSystem/observation-category",
                "code": "laboratory"
              }
            ]
          }
        ],
        "code": {
          "coding": [
            {
              "system": "http://loinc.org",
              "code": "94504-8",
              "display": "SARS-CoV-2 (COVID-19) Ab panel - Serum or Plasma by Immunoassay"
            }
          ],
          "text": "SARS-CoV-2 antibodies panel"
        },
        "subject": {
          "reference": "Patient/c786ac3c-0579-4aa2-adda-db784b214ad6"
        },
        "effectiveDateTime": "2020-10-19T08:43:33+02:00",
        "hasMember": [
          {
            "reference": "urn:uuid:22732de8-3eb6-477e-81d6-28fb906b3e4e"
          },
          {
            "reference": "urn:uuid:70ca7d00-0d8b-42bb-9508-a8fc76e5c7ad"
          },
          {
            "reference": "urn:uuid:7e746710-fad4-474b-8a28-422863f3a2b8"
          },
          {
            "reference": "urn:uuid:f35f17da-f642-402d-8cf4-ff70607713a7"
          },
          {
            "reference": "urn:uuid:7297b0fd-3be7-4b88-a63a-6ba651152c41"
          },
          {
            "reference": "urn:uuid:da1fa3fe-a8a3-44b6-94c6-3497269436ec"
          },
          {
            "reference": "urn:uuid:b5adbc53-a1ee-4a57-9ede-fae4b4462bfb"
          },
          {
            "reference": "urn:uuid:b08b1687-2ea1-4b14-9473-dd04389169ec"
          }
        ]
      },
    "request": {
      "method": "POST",
      "url": "Observation"
    }
    },
    {
      "fullUrl": "urn:uuid:70ca7d00-0d8b-42bb-9508-a8fc76e5c7ad",
      "resource": {
        "resourceType": "Observation",
        "meta": {
          "profile": [
            "https://www.netzwerk-universitaetsmedizin.de/fhir/StructureDefinition/sars-cov-2-ab-ser-pl-ql-ia"
          ]
        },
        "identifier": [
          {
            "type": {
              "coding": [
                {
                  "system": "http://terminology.hl7.org/CodeSystem/v2-0203",
                  "code": "OBI"
                }
              ]
            },
            "system": "https://www.charite.de/fhir/CodeSystem/lab-identifiers",
            "value": "94762-2_SARS-CoV-2-Ab-Ql",
            "assigner": {
              "reference": "Organization/Charité"
            }
          }
        ],
        "status": "final",
        "category": [
          {
            "coding": [
              {
                "system": "http://loinc.org",
                "code": "26436-6"
              },
              {
                "system": "http://terminology.hl7.org/CodeSystem/observation-category",
                "code": "laboratory"
              }
            ]
          }
        ],
        "code": {
          "coding": [
            {
              "system": "http://loinc.org",
              "code": "94762-2",
              "display": "SARS-CoV-2 (COVID-19) Ab [Presence] in Serum or Plasma by Immunoassay"
            }
          ],
          "text": "SARS-CoV-2 antibodies qualitative"
        },
        "subject": {
          "reference": "Patient/c786ac3c-0579-4aa2-adda-db784b214ad6"
        },
        "effectiveDateTime": "2020-10-19T08:43:33+02:00",
        "valueCodeableConcept": {
          "coding": [
            {
              "system": "http://snomed.info/sct",
              "code": "260373001",
              "display": "Detected (qualifier value)"
            }
          ]
        }
      },
      "request": {
        "method": "POST",
        "url": "Observation"
      }
    },
    {
      "fullUrl": "urn:uuid:22732de8-3eb6-477e-81d6-28fb906b3e4e",
      "resource": {},
      "request": {
        "method": "POST",
        "url": "Observation"
      }
    },
    {      "fullUrl": "urn:uuid:7e746710-fad4-474b-8a28-422863f3a2b8",
      "resource": {},
      "request": {
        "method": "POST",
        "url": "Observation"
      }
    },
    {
    "fullUrl": "urn:uuid:70ca7d00-0d8b-42bb-9508-a8fc76e5c7ad",
    "resource": {},
      "request": {
        "method": "POST",
        "url": "Observation"
      }
    },
    {
      "fullUrl": "urn:uuid:f35f17da-f642-402d-8cf4-ff70607713a7",
      "resource": {},
      "request": {
        "method": "POST",
        "url": "Observation"
      }
    },
    {
      "fullUrl": "urn:uuid:7297b0fd-3be7-4b88-a63a-6ba651152c41",
      "resource": {},
      "request": {
        "method": "POST",
        "url": "Observation"
      }
    },
    {
      "fullUrl": "urn:uuid:da1fa3fe-a8a3-44b6-94c6-3497269436ec",
      "resource": {},
      "request": {
        "method": "POST",
        "url": "Observation"
      }
    },
    {
      "fullUrl": "urn:uuid:b5adbc53-a1ee-4a57-9ede-fae4b4462bfb",
      "resource": {},
      "request": {
        "method": "POST",
        "url": "Observation"
      }
    },
    {
      "fullUrl": "urn:uuid:b08b1687-2ea1-4b14-9473-dd04389169ec",
      "resource": {},
      "request": {
        "method": "POST",
        "url": "Observation"
      }
    }
  ]
}

